T[s]	GYRO_X	GYRO_Y	GYRO_Z	GyroSts	ACC_X	ACC_Y	ACC_Z	AccSts	INC_X	INC_Y	INC_Z	IncSts	Counter	Latency	RxCRC	CalCRC	DG_ID	
0.085323	-0.073914	0.028809	0.046631	0	0.0599060	0.0052128	0.9839478	0	0.06269240	0.00209117	0.99995017	0	105	507	-1786292368	-1786292368	147
0.085355	-0.081909	0.038696	0.041382	0	0.0589066	0.0045261	0.9837456	0	0.06232309	0.00229788	0.99944329	0	121	506	1385280685	1385280685	147
0.109346	-0.077087	0.037231	0.033569	0	0.0582504	0.0041847	0.9838104	0	0.06120706	0.00239229	0.99877930	0	137	506	-378417497	-378417497	147
0.109532	-0.059631	0.038086	0.039368	0	0.0576820	0.0044441	0.9841290	0	0.06016135	0.00201631	0.99820590	0	153	506	-934946583	-934946583	147
0.109551	-0.052917	0.030396	0.054260	0	0.0568466	0.0046482	0.9847012	0	0.05963945	0.00132990	0.99809313	0	169	506	-1292547856	-1292547856	147
0.133251	-0.059387	0.015625	0.069580	0	0.0565128	0.0049877	0.9849625	0	0.05945063	0.00113869	0.99880934	0	185	506	371946253	371946253	147
0.133282	-0.053589	0.013428	0.072205	0	0.0571690	0.0055046	0.9845638	0	0.05956268	0.00151610	0.99970722	0	201	506	302285783	302285783	147
0.133827	-0.034119	0.020447	0.061890	0	0.0580368	0.0054531	0.9838848	0	0.05990291	0.00164866	0.99958324	0	217	506	-783799118	-783799118	147
0.157218	-0.028381	0.019897	0.046143	0	0.0586185	0.0052853	0.9835949	0	0.06021070	0.00155473	0.99865460	0	233	506	-1887599493	-1887599493	147
0.157240	-0.046082	0.012024	0.025635	0	0.0590916	0.0055695	0.9838066	0	0.06055140	0.00187993	0.99818134	0	249	507	168925964	168925964	147
0.157252	-0.062317	0.003662	0.008728	0	0.0594711	0.0055771	0.9840260	0	0.06120467	0.00235868	0.99837875	0	9	507	-996875514	-996875514	147
0.181202	-0.053589	-0.004822	0.003845	0	0.0594139	0.0052261	0.9840431	0	0.06201029	0.00248194	0.99865484	0	25	507	-57794664	-57794664	147
0.181223	-0.031982	-0.012878	0.009338	0	0.0588188	0.0052090	0.9842262	0	0.06221271	0.00246167	0.99884605	0	41	507	1040685055	1040685055	147
0.181236	-0.021301	-0.017334	0.017578	0	0.0580425	0.0054970	0.9847393	0	0.06161618	0.00249052	0.99894047	0	57	506	890555687	890555687	147
0.205147	-0.026001	-0.013916	0.020630	0	0.0574360	0.0057926	0.9850235	0	0.06098771	0.00227952	0.99892044	0	73	506	-1344013034	-1344013034	147
0.205186	-0.040344	-0.007568	0.022339	0	0.0573483	0.0062618	0.9848557	0	0.06055927	0.00169754	0.99901772	0	89	506	99817519	99817519	147
0.205204	-0.052124	-0.003296	0.029846	0	0.0575848	0.0067120	0.9848709	0	0.06006861	0.00141072	0.99912024	0	105	506	506103118	506103118	147
0.229165	-0.053955	0.003235	0.040161	0	0.0576706	0.0067940	0.9852848	0	0.05984998	0.00203204	0.99884248	0	121	506	1364465496	1364465496	147
0.229222	-0.055359	0.010681	0.048950	0	0.0577641	0.0070305	0.9852619	0	0.06025624	0.00298667	0.99847770	0	137	506	-2033968822	-2033968822	147
0.229234	-0.058716	0.014954	0.054138	0	0.0579948	0.0074921	0.9843178	0	0.06101584	0.00349212	0.99849582	0	153	506	810644357	810644357	147
0.253089	-0.058777	0.015808	0.056580	0	0.0583572	0.0073929	0.9833183	0	0.06166387	0.00356936	0.99848056	0	169	507	-978278826	-978278826	147
0.253115	-0.052979	0.012756	0.053772	0	0.0590153	0.0069389	0.9831486	0	0.06185865	0.00359321	0.99799204	0	185	505	-136157854	-136157854	147
0.253164	-0.049133	0.009399	0.043640	0	0.0595741	0.0068665	0.9834557	0	0.06171060	0.00376678	0.99751019	0	201	507	29010954	29010954	147
0.277096	-0.057556	0.009216	0.031982	0	0.0596352	0.0069370	0.9833698	0	0.06187415	0.00398350	0.99756145	0	217	506	-130113169	-130113169	147
0.277117	-0.067627	0.007690	0.015381	0	0.0595036	0.0064735	0.9830303	0	0.06256890	0.00422192	0.99797821	0	233	506	1892308685	1892308685	147
0.277168	-0.073914	0.008362	0.002380	0	0.0592403	0.0054550	0.9834709	0	0.06322813	0.00424767	0.99827933	0	249	506	-1773764180	-1773764180	147
0.301108	-0.082764	0.017822	0.015564	0	0.0584412	0.0046177	0.9846821	0	0.06301093	0.00344658	0.99815440	0	9	506	546689397	546689397	147
0.301131	-0.084229	0.025757	0.042358	0	0.0573196	0.0043869	0.9854221	0	0.06181812	0.00191331	0.99766445	0	25	506	1122457069	1122457069	147
0.301144	-0.076111	0.026917	0.056152	0	0.0566559	0.0042896	0.9854660	0	0.06061745	0.00056314	0.99725676	0	41	506	1027668210	1027668210	147
0.325071	-0.069519	0.026123	0.061768	0	0.0568256	0.0040646	0.9854050	0	0.05995560	0.00003052	0.99725103	0	57	506	-1612809464	-1612809464	147
0.325095	-0.061707	0.018555	0.069702	0	0.0576134	0.0041714	0.9849567	0	0.05971932	-0.00000477	0.99751687	0	73	507	1768372894	1768372894	147
0.325108	-0.049438	0.004456	0.073120	0	0.0586224	0.0047226	0.9840546	0	0.05991030	0.00001550	0.99776578	0	89	506	1807776379	1807776379	147
0.349069	-0.038696	-0.001099	0.064880	0	0.0596161	0.0053730	0.9834251	0	0.06057453	0.00018191	0.99775124	0	105	507	-1827229238	-1827229238	147
0.349122	-0.036438	0.012451	0.047424	0	0.0601521	0.0058880	0.9834042	0	0.06153250	0.00066733	0.99758768	0	121	506	1180998360	1180998360	147
0.349134	-0.043823	0.031433	0.028870	0	0.0598602	0.0060692	0.9836674	0	0.06240654	0.00151300	0.99746490	0	137	506	2006314990	2006314990	147
0.373017	-0.052795	0.033203	0.017273	0	0.0593758	0.0058708	0.9838829	0	0.06304502	0.00200701	0.99733257	0	153	506	58209286	58209286	147
0.373077	-0.055969	0.028442	0.012146	0	0.0592194	0.0056572	0.9842148	0	0.06340051	0.00160909	0.99745607	0	169	506	1534144771	1534144771	147
0.373093	-0.050293	0.035034	0.011230	0	0.0590267	0.0056992	0.9849739	0	0.06333709	0.00123906	0.99815369	0	185	506	-1877000729	-1877000729	147
0.397000	-0.041870	0.037659	0.021851	0	0.0587559	0.0056877	0.9857273	0	0.06285334	0.00133348	0.99908853	0	201	506	-514873794	-514873794	147
0.397026	-0.044495	0.023865	0.042419	0	0.0583534	0.0055313	0.9855328	0	0.06209540	0.00112009	0.99961424	0	217	506	637094581	637094581	147
0.397081	-0.053955	0.007568	0.057434	0	0.0574474	0.0055122	0.9845352	0	0.06133485	0.00054693	0.99948525	0	233	507	-1740143311	-1740143311	147
0.420951	-0.056213	0.004333	0.062805	0	0.0566673	0.0054607	0.9839973	0	0.06068397	0.00033593	0.99906611	0	249	506	994710108	994710108	147
0.420976	-0.052124	0.010620	0.061768	0	0.0566082	0.0054455	0.9842377	0	0.05997539	0.00066543	0.99899268	0	9	507	-1410152282	-1410152282	147
0.420990	-0.054504	0.012451	0.053406	0	0.0568829	0.0058212	0.9842510	0	0.05934000	0.00122118	0.99930859	0	25	506	67970582	67970582	147
0.444912	-0.062927	0.008118	0.041077	0	0.0574455	0.0063553	0.9838600	0	0.05931282	0.00182462	0.99938607	0	41	506	928063288	928063288	147
0.444933	-0.057495	0.002808	0.026978	0	0.0585232	0.0070019	0.9839668	0	0.06002617	0.00224495	0.99894094	0	57	506	-1326984697	-1326984697	147
0.444945	-0.042236	-0.002441	0.011047	0	0.0597229	0.0077457	0.9844723	0	0.06091547	0.00213885	0.99818397	0	73	506	1179114363	1179114363	147
0.468867	-0.039795	-0.002319	0.001587	0	0.0602512	0.0081234	0.9843559	0	0.06150174	0.00187254	0.99728560	0	89	506	-1913173691	-1913173691	147
0.468887	-0.048279	0.006042	0.003540	0	0.0600395	0.0081863	0.9834309	0	0.06194592	0.00198674	0.99657321	0	105	506	-1281331533	-1281331533	147
0.468901	-0.052307	0.012268	0.014221	0	0.0596619	0.0080910	0.9825916	0	0.06241655	0.00206733	0.99654579	0	121	506	-2006549535	-2006549535	147
0.492868	-0.053101	0.007202	0.029846	0	0.0590401	0.0074081	0.9826984	0	0.06243610	0.00207114	0.99707007	0	137	507	731311609	731311609	147
0.492943	-0.057983	-0.003601	0.046631	0	0.0579700	0.0062313	0.9834595	0	0.06174445	0.00232887	0.99767542	0	153	507	-994372364	-994372364	147
0.492963	-0.062012	-0.005493	0.061584	0	0.0568562	0.0052814	0.9840832	0	0.06090832	0.00225186	0.99823117	0	169	507	30187916	30187916	147
0.516835	-0.062012	0.007446	0.069153	0	0.0559940	0.0047646	0.9846134	0	0.06038523	0.00169015	0.99875402	0	185	507	1544325575	1544325575	147
0.516878	-0.060059	0.017944	0.074219	0	0.0555954	0.0046616	0.9851093	0	0.06015587	0.00116515	0.99934840	0	201	506	539938682	539938682	147
0.516928	-0.057800	0.014893	0.079956	0	0.0560493	0.0050602	0.9851494	0	0.06016493	0.00085163	1.00001574	0	217	506	1006151360	1006151360	147
0.540771	-0.057434	0.014282	0.073181	0	0.0571270	0.0055695	0.9847965	0	0.06031847	0.00099611	1.00040388	0	233	506	-1627071745	-1627071745	147
0.540791	-0.055786	0.014771	0.053223	0	0.0581551	0.0060844	0.9843426	0	0.06071734	0.00156713	1.00016117	0	249	506	-2138010429	-2138010429	147
0.540875	-0.053955	0.008179	0.032837	0	0.0589542	0.0067253	0.9839916	0	0.06158805	0.00190687	0.99965763	0	9	506	-237646273	-237646273	147
0.564793	-0.057922	0.009521	0.021545	0	0.0596066	0.0070381	0.9842129	0	0.06258702	0.00196338	0.99945879	0	25	506	-120049737	-120049737	147
0.564816	-0.060669	0.016418	0.019897	0	0.0600624	0.0067768	0.9850368	0	0.06326532	0.00221157	0.99931431	0	41	506	1697996139	1697996139	147
0.564828	-0.054932	0.018127	0.021179	0	0.0601063	0.0061607	0.9854717	0	0.06323504	0.00214362	0.99890161	0	57	506	1427577751	1427577751	147
0.588736	-0.044983	0.019836	0.024902	0	0.0595093	0.0057755	0.9849358	0	0.06222582	0.00140595	0.99862504	0	73	507	-1789868249	-1789868249	147
0.588755	-0.036804	0.020813	0.035156	0	0.0585346	0.0059624	0.9842110	0	0.06100535	0.00102901	0.99895334	0	89	507	-1755796937	-1755796937	147
0.588767	-0.032898	0.014038	0.051514	0	0.0575123	0.0060654	0.9841709	0	0.06025076	0.00137997	0.99941444	0	105	506	116641031	116641031	147
0.612705	-0.033813	0.000000	0.063354	0	0.0567226	0.0055847	0.9845524	0	0.05960631	0.00154376	0.99924588	0	121	506	1015905199	1015905199	147
0.612811	-0.038879	-0.007935	0.069641	0	0.0564404	0.0049801	0.9846287	0	0.05902863	0.00126338	0.99879837	0	137	506	1235201907	1235201907	147
0.612828	-0.043701	-0.007263	0.077026	0	0.0565948	0.0048103	0.9842339	0	0.05892301	0.00111318	0.99889112	0	153	506	-1979260259	-1979260259	147
0.636654	-0.044556	-0.011780	0.071228	0	0.0574322	0.0050507	0.9835110	0	0.05925632	0.00105643	0.99979186	0	169	506	2140334384	2140334384	147
0.636729	-0.040955	-0.019409	0.048218	0	0.0589409	0.0053043	0.9830780	0	0.05994391	0.00079632	1.00093365	0	185	506	-1855741913	-1855741913	147
0.636746	-0.032776	-0.022095	0.026367	0	0.0604095	0.0053692	0.9833527	0	0.06098366	0.00081110	1.00126266	0	201	506	2072342899	2072342899	147
0.660613	-0.025024	-0.014771	0.011719	0	0.0614395	0.0055485	0.9836655	0	0.06201553	0.00153923	1.00061202	0	217	507	-1408447563	-1408447563	147
0.660634	-0.028381	0.007263	0.001099	0	0.0617123	0.0059166	0.9838428	0	0.06292534	0.00260115	0.99978733	0	233	507	841224840	841224840	147
0.660679	-0.042542	0.026733	-0.004333	0	0.0612164	0.0061302	0.9844398	0	0.06380749	0.00311542	0.99922109	0	249	506	-737712235	-737712235	147
0.684575	-0.056580	0.030518	0.001648	0	0.0606098	0.0062866	0.9850578	0	0.06422043	0.00279951	0.99864984	0	9	506	620685172	620685172	147
0.684597	-0.067200	0.027039	0.019348	0	0.0600719	0.0066471	0.9851265	0	0.06397128	0.00254130	0.99801469	0	25	506	-218299390	-218299390	147
0.684610	-0.076538	0.020996	0.037537	0	0.0593185	0.0070839	0.9847851	0	0.06332421	0.00274968	0.99775982	0	41	506	-1737929316	-1737929316	147
0.733547	-0.080872	0.015747	0.051880	0	0.0583172	0.0070992	0.9840927	0	0.06211495	0.00285029	0.99805570	0	57	506	1831225643	1831225643	147
0.733580	-0.073425	0.017700	0.063232	0	0.0573387	0.0065117	0.9834805	0	0.06032968	0.00263977	0.99848056	0	73	506	-127679932	-127679932	147
0.733595	-0.061462	0.023926	0.065918	0	0.0568123	0.0060349	0.9833984	0	0.05867219	0.00233293	0.99859834	0	89	506	824552558	824552558	147
0.733724	-0.054504	0.022278	0.068054	0	0.0569305	0.0060406	0.9837456	0	0.05805039	0.00216484	0.99842882	0	105	506	808775228	808775228	147
0.733741	-0.048828	0.010681	0.076538	0	0.0575237	0.0059013	0.9844990	0	0.05889463	0.00232768	0.99816370	0	121	507	-2122438755	-2122438755	147
0.733771	-0.043762	0.007385	0.070190	0	0.0583000	0.0055847	0.9851685	0	0.06068444	0.00265408	0.99811769	0	137	507	-1711228842	-1711228842	147
0.797424	-0.042175	0.018555	0.040405	0	0.0591316	0.0057926	0.9850883	0	0.06238031	0.00277495	0.99862409	0	153	507	-662637872	-662637872	147
0.797499	-0.041687	0.020996	0.009094	0	0.0598774	0.0063305	0.9842834	0	0.06315732	0.00266218	0.99923444	0	169	506	-235959543	-235959543	147
0.797512	-0.043335	0.008484	-0.006042	0	0.0599995	0.0064926	0.9834995	0	0.06294966	0.00254321	0.99933720	0	185	506	-936029262	-936029262	147
0.797528	-0.052917	0.004089	-0.000061	0	0.0592899	0.0061817	0.9837303	0	0.06243277	0.00233960	0.99916840	0	201	506	-590525989	-590525989	147
0.797543	-0.071838	0.011536	0.023499	0	0.0583858	0.0057659	0.9845467	0	0.06218696	0.00181508	0.99919534	0	217	506	-968276131	-968276131	147
0.797598	-0.084473	0.020020	0.047302	0	0.0576763	0.0055523	0.9848537	0	0.06217289	0.00141954	0.99942350	0	233	506	-564239155	-564239155	147
0.797615	-0.076965	0.024292	0.057129	0	0.0569534	0.0053520	0.9846954	0	0.06179762	0.00156426	0.99948263	0	249	506	-1097175169	-1097175169	147
0.797632	-0.063110	0.016052	0.057251	0	0.0564785	0.0049915	0.9844398	0	0.06068516	0.00175786	0.99926829	0	9	506	1316637554	1316637554	147
0.821451	-0.059326	0.001831	0.056824	0	0.0567474	0.0048103	0.9843426	0	0.05944538	0.00170064	0.99905372	0	25	507	326780050	326780050	147
0.821471	-0.063721	-0.000671	0.058533	0	0.0575027	0.0050602	0.9843140	0	0.05896449	0.00142026	0.99898744	0	41	507	-785081589	-785081589	147
0.821483	-0.068604	0.010315	0.057556	0	0.0580616	0.0054150	0.9840755	0	0.05940771	0.00083399	0.99886346	0	57	506	-1350020400	-1350020400	147
0.845372	-0.064392	0.021606	0.048828	0	0.0584316	0.0056534	0.9840698	0	0.06025767	0.00057960	0.99843407	0	73	507	1666334401	1666334401	147
0.845426	-0.050720	0.020996	0.034729	0	0.0592594	0.0058651	0.9844646	0	0.06116176	0.00132918	0.99798942	0	89	506	-772129863	-772129863	147
0.845439	-0.040771	0.009521	0.024902	0	0.0604610	0.0058956	0.9846725	0	0.06235862	0.00238776	0.99795175	0	105	506	-1541880143	-1541880143	147
0.869387	-0.038757	0.001160	0.024414	0	0.0612221	0.0057068	0.9847012	0	0.06357479	0.00274348	0.99823046	0	121	506	-2007127218	-2007127218	147
0.869413	-0.042847	0.007141	0.027161	0	0.0612831	0.0057888	0.9847126	0	0.06393933	0.00250697	0.99828863	0	137	506	140610218	140610218	147
0.869482	-0.054199	0.018188	0.033386	0	0.0606880	0.0063705	0.9844151	0	0.06353235	0.00240827	0.99762034	0	153	506	-951510417	-951510417	147
0.893404	-0.063232	0.020325	0.047791	0	0.0595131	0.0067520	0.9839573	0	0.06299806	0.00266123	0.99647284	0	169	506	-1532217153	-1532217153	147
0.893426	-0.062073	0.013550	0.059753	0	0.0581036	0.0064335	0.9835567	0	0.06220436	0.00278854	0.99577904	0	185	506	-1629370921	-1629370921	147
0.893492	-0.058350	0.005493	0.060791	0	0.0567932	0.0059032	0.9833889	0	0.06106925	0.00251555	0.99606133	0	201	506	-452631393	-452631393	147
0.917271	-0.060242	0.006104	0.060547	0	0.0558910	0.0054512	0.9839134	0	0.06019878	0.00202560	0.99709940	0	217	507	-1270015656	-1270015656	147
0.917300	-0.069580	0.012939	0.061523	0	0.0558472	0.0049534	0.9849014	0	0.05981207	0.00153518	0.99861813	0	233	506	295877253	295877253	147
0.917319	-0.084106	0.018005	0.054993	0	0.0567665	0.0049362	0.9855690	0	0.05977058	0.00153255	0.99997735	0	249	506	1581224232	1581224232	147
0.941234	-0.094604	0.023499	0.042053	0	0.0580578	0.0056610	0.9856358	0	0.06023026	0.00195622	1.00035453	0	9	506	-984654403	-984654403	147
0.941264	-0.090393	0.027466	0.028137	0	0.0590897	0.0060787	0.9850426	0	0.06099534	0.00199747	0.99991155	0	25	506	-1457023435	-1457023435	147
0.941280	-0.076172	0.023315	0.023376	0	0.0599442	0.0058136	0.9839420	0	0.06161118	0.00191641	0.99912477	0	41	506	-1483957098	-1483957098	147
0.965259	-0.066650	0.010925	0.033936	0	0.0605316	0.0057907	0.9832363	0	0.06215429	0.00228453	0.99822187	0	57	506	588748706	588748706	147
0.965284	-0.059998	0.001953	0.041809	0	0.0602074	0.0061111	0.9833717	0	0.06263351	0.00268960	0.99769783	0	73	506	-1224540469	-1224540469	147
0.965296	-0.051941	0.005981	0.038025	0	0.0591354	0.0062447	0.9838524	0	0.06269646	0.00290108	0.99794555	0	89	506	252385683	252385683	147
0.989222	-0.048767	0.009216	0.035767	0	0.0580826	0.0061760	0.9843750	0	0.06243634	0.00289273	0.99861717	0	105	507	-1771158633	-1771158633	147
0.989290	-0.047363	0.007629	0.039856	0	0.0571423	0.0058231	0.9846802	0	0.06216002	0.00262094	0.99905896	0	121	506	-1201041751	-1201041751	147
0.989304	-0.044250	0.015442	0.051392	0	0.0562496	0.0051613	0.9845581	0	0.06169224	0.00241971	0.99893999	0	137	506	-1138843834	-1138843834	147
1.013132	-0.040771	0.024719	0.067566	0	0.0556431	0.0048103	0.9841061	0	0.06082368	0.00233364	0.99831581	0	153	506	1809319919	1809319919	147
1.013155	-0.039917	0.018311	0.072144	0	0.0555134	0.0050507	0.9835720	0	0.05991673	0.00212240	0.99778032	0	169	506	2053535105	2053535105	147
1.013236	-0.049377	0.002502	0.060547	0	0.0561085	0.0053883	0.9833488	0	0.05948234	0.00180030	0.99788451	0	185	506	-393829665	-393829665	147
1.037129	-0.062378	-0.004883	0.051514	0	0.0573826	0.0056248	0.9837017	0	0.05967498	0.00135684	0.99838805	0	201	506	339588765	339588765	147
1.037165	-0.065918	0.000305	0.051331	0	0.0588436	0.0058804	0.9846649	0	0.06040096	0.00102043	0.99903393	0	217	506	-1077030636	-1077030636	147
1.037221	-0.063660	0.006287	0.043152	0	0.0601616	0.0060005	0.9857635	0	0.06129742	0.00142121	0.99991131	0	233	506	-1872055918	-1872055918	147
1.061103	-0.058716	0.000488	0.021851	0	0.0609779	0.0060921	0.9859791	0	0.06191635	0.00230360	1.00063229	0	249	506	1557543923	1557543923	147
1.061126	-0.051086	-0.014465	0.003967	0	0.0610428	0.0063744	0.9847946	0	0.06223178	0.00259662	1.00049734	0	9	507	2004136743	2004136743	147
1.061138	-0.046997	-0.022583	0.006714	0	0.0606670	0.0064602	0.9830017	0	0.06224275	0.00224423	0.99961567	0	25	507	-782343080	-782343080	147
1.085065	-0.046509	-0.013000	0.020996	0	0.0599270	0.0061302	0.9823074	0	0.06183076	0.00189710	0.99896121	0	41	507	1522625107	1522625107	147
1.085090	-0.048462	0.001038	0.024597	0	0.0586853	0.0057297	0.9832668	0	0.06105995	0.00144219	0.99910021	0	57	506	1268171153	1268171153	147
1.085103	-0.056091	0.000916	0.024780	0	0.0574760	0.0054245	0.9846630	0	0.05992484	0.00070500	0.99947858	0	73	506	25923508	25923508	147
1.109041	-0.063293	-0.010742	0.038086	0	0.0570087	0.0052547	0.9856339	0	0.05879712	0.00028110	0.99938822	0	89	506	277342694	277342694	147
1.109118	-0.060608	-0.021301	0.058533	0	0.0572453	0.0052338	0.9859600	0	0.05828452	0.00039983	0.99893117	0	105	506	1282658849	1282658849	147
1.109137	-0.057007	-0.019043	0.072388	0	0.0576420	0.0052090	0.9853973	0	0.05844617	0.00047970	0.99863625	0	121	506	160493668	160493668	147
1.133066	-0.062317	-0.005554	0.070007	0	0.0579491	0.0052376	0.9846191	0	0.05913496	0.00035596	0.99877954	0	137	506	-2118193786	-2118193786	147
1.133192	-0.065125	0.001648	0.055420	0	0.0583744	0.0054569	0.9845142	0	0.06009746	0.00043702	0.99927139	0	153	506	-2146505509	-2146505509	147
1.133211	-0.061584	-0.002441	0.044434	0	0.0593758	0.0057678	0.9847488	0	0.06115580	0.00080109	0.99963593	0	169	507	-1764323859	-1764323859	147
1.156994	-0.060059	-0.004944	0.038025	0	0.0606251	0.0060635	0.9848080	0	0.06217456	0.00138927	0.99940491	0	185	506	20997676	20997676	147
1.157015	-0.059631	0.000427	0.026794	0	0.0609608	0.0063095	0.9849434	0	0.06260180	0.00229788	0.99887633	0	201	507	370096407	370096407	147
1.157078	-0.057007	0.007568	0.015686	0	0.0602226	0.0063782	0.9851780	0	0.06227279	0.00290155	0.99885201	0	217	507	-1699538448	-1699538448	147
1.180994	-0.049927	0.008484	0.010010	0	0.0590897	0.0061474	0.9848557	0	0.06152081	0.00257182	0.99960232	0	233	506	461676000	461676000	147
1.181015	-0.040771	0.007263	0.005920	0	0.0582104	0.0057621	0.9840393	0	0.06072927	0.00213027	1.00059962	0	249	506	900136258	900136258	147
1.181027	-0.043945	0.014221	0.008057	0	0.0580158	0.0055237	0.9836998	0	0.06048584	0.00211573	1.00101209	0	9	506	250675471	250675471	147
1.204954	-0.060181	0.021851	0.020203	0	0.0580502	0.0055237	0.9839001	0	0.06081724	0.00183940	1.00035787	0	25	506	441343773	441343773	147
1.204980	-0.069519	0.018494	0.037109	0	0.0577564	0.0053921	0.9841881	0	0.06096792	0.00116038	0.99927783	0	41	506	-2120418860	-2120418860	147
1.204996	-0.067505	0.009766	0.056152	0	0.0573711	0.0050488	0.9846668	0	0.06063199	0.00053787	0.99898911	0	57	506	-326872992	-326872992	147
1.229004	-0.063354	0.005005	0.066772	0	0.0573959	0.0049725	0.9850597	0	0.06034803	0.00009465	0.99972105	0	73	506	-1571528678	-1571528678	147
1.229057	-0.059387	0.003113	0.060059	0	0.0580311	0.0050983	0.9848900	0	0.06052113	0.00005913	1.00048518	0	89	507	644210092	644210092	147
1.229074	-0.053223	0.002563	0.047241	0	0.0589447	0.0051422	0.9842606	0	0.06109810	0.00073123	1.00025439	0	105	507	138501768	138501768	147
1.252856	-0.045715	0.008850	0.038757	0	0.0597801	0.0053997	0.9838619	0	0.06191611	0.00153065	0.99907994	0	121	507	2066970554	2066970554	147
1.252918	-0.044678	0.019104	0.031494	0	0.0603580	0.0057526	0.9840164	0	0.06262016	0.00157142	0.99788809	0	137	506	-659542946	-659542946	147
1.252932	-0.050781	0.020508	0.022583	0	0.0603352	0.0058289	0.9841766	0	0.06278396	0.00110793	0.99734807	0	153	506	1658442288	1658442288	147
1.276827	-0.049561	0.009338	0.020386	0	0.0595837	0.0059490	0.9842091	0	0.06239295	0.00117469	0.99746990	0	169	506	-1360480960	-1360480960	147
1.276848	-0.037842	-0.005859	0.029968	0	0.0585308	0.0061531	0.9844799	0	0.06193209	0.00189590	0.99804688	0	185	506	42648439	42648439	147
1.276896	-0.033203	-0.014771	0.039917	0	0.0577774	0.0059853	0.9846725	0	0.06146288	0.00244570	0.99871182	0	201	506	645514542	645514542	147
1.300824	-0.041077	-0.011963	0.043213	0	0.0576038	0.0055141	0.9844208	0	0.06056190	0.00239587	0.99878240	0	217	506	911754854	911754854	147
1.300857	-0.054871	-0.003296	0.044739	0	0.0576859	0.0053673	0.9841995	0	0.05964136	0.00209570	0.99815702	0	233	506	-2100115743	-2100115743	147
1.300910	-0.072021	0.000366	0.045837	0	0.0575829	0.0056019	0.9842758	0	0.05943990	0.00217271	0.99768233	0	249	507	-2101115119	-2101115119	147
1.324743	-0.081299	0.000244	0.046875	0	0.0575848	0.0056343	0.9846706	0	0.05976605	0.00261021	0.99793553	0	9	506	1433608460	1433608460	147
1.324766	-0.073853	0.000183	0.051575	0	0.0580235	0.0055008	0.9856319	0	0.06014299	0.00258970	0.99869037	0	25	507	886927262	886927262	147
1.324778	-0.061890	-0.000610	0.058228	0	0.0584545	0.0055923	0.9863873	0	0.06057620	0.00187111	0.99945068	0	41	506	1588814284	1588814284	147
1.348724	-0.057983	-0.000549	0.061829	0	0.0587254	0.0058956	0.9858932	0	0.06106710	0.00117445	0.99996471	0	57	506	712845467	712845467	147
1.348743	-0.062500	0.002991	0.058289	0	0.0590019	0.0061188	0.9845390	0	0.06140542	0.00102520	1.00005198	0	73	506	243961059	243961059	147
1.348756	-0.068481	0.007874	0.045593	0	0.0592594	0.0060406	0.9833965	0	0.06158876	0.00127006	0.99963570	0	89	506	-107063501	-107063501	147
1.372726	-0.063232	0.008484	0.028137	0	0.0595875	0.0059662	0.9829712	0	0.06170273	0.00149393	0.99913621	0	105	506	-1711139517	-1711139517	147
1.372779	-0.049316	0.009216	0.015747	0	0.0599480	0.0061646	0.9830894	0	0.06200695	0.00148964	0.99880147	0	121	506	1899647427	1899647427	147
1.372791	-0.043091	0.014893	0.016907	0	0.0600700	0.0061779	0.9837399	0	0.06262803	0.00133586	0.99854445	0	137	506	-1244261241	-1244261241	147
1.396712	-0.049805	0.020996	0.022888	0	0.0596104	0.0057335	0.9847984	0	0.06292963	0.00127149	0.99876213	0	153	507	1847275405	1847275405	147
1.396775	-0.062256	0.021118	0.025635	0	0.0587063	0.0052776	0.9854755	0	0.06263924	0.00124311	0.99939036	0	169	507	1806017775	1806017775	147
1.396787	-0.067810	0.009766	0.036255	0	0.0580120	0.0051556	0.9854107	0	0.06221437	0.00095701	0.99931479	0	185	507	-1762308276	-1762308276	147
1.420644	-0.060425	-0.001038	0.051941	0	0.0579720	0.0053387	0.9849911	0	0.06179094	0.00063419	0.99835873	0	201	506	1924413938	1924413938	147
1.420665	-0.049255	0.006470	0.054993	0	0.0584335	0.0055294	0.9847279	0	0.06136298	0.00066280	0.99731064	0	217	506	1645388935	1645388935	147
1.420710	-0.045654	0.022034	0.048096	0	0.0587101	0.0055180	0.9847317	0	0.06118584	0.00097442	0.99664950	0	233	506	-1467547784	-1467547784	147
1.444623	-0.051514	0.027954	0.042419	0	0.0586128	0.0054989	0.9846344	0	0.06141138	0.00147033	0.99683213	0	249	506	293250890	293250890	147
1.444645	-0.063721	0.024841	0.035278	0	0.0585251	0.0054817	0.9844494	0	0.06190991	0.00202394	0.99766755	0	9	506	1187425476	1187425476	147
1.444657	-0.073792	0.018127	0.024597	0	0.0585938	0.0055199	0.9844933	0	0.06235099	0.00233674	0.99834418	0	25	506	1157200164	1157200164	147
1.468615	-0.073120	0.011597	0.017212	0	0.0586853	0.0059338	0.9845047	0	0.06237054	0.00251961	0.99867582	0	41	506	2048279822	2048279822	147
1.468635	-0.070129	0.007263	0.017029	0	0.0587330	0.0065422	0.9840736	0	0.06190729	0.00297999	0.99885631	0	57	507	1278905047	1278905047	147
1.468648	-0.070496	-0.002808	0.017273	0	0.0589485	0.0068188	0.9836426	0	0.06134248	0.00350285	0.99890471	0	73	506	1583624801	1583624801	147
1.492596	-0.066284	-0.019287	0.010803	0	0.0590038	0.0066414	0.9837189	0	0.06106162	0.00342393	0.99867153	0	89	507	-1588569973	-1588569973	147
1.492627	-0.063293	-0.026001	0.005920	0	0.0581856	0.0062618	0.9841328	0	0.06107163	0.00278282	0.99801731	0	105	506	13715210	13715210	147
1.492639	-0.066772	-0.017334	0.012085	0	0.0570831	0.0059013	0.9846382	0	0.06112027	0.00206375	0.99735308	0	121	506	1843669322	1843669322	147
1.645352	-0.067749	0.000488	0.023499	0	0.0570831	0.0056114	0.9847927	0	0.06105924	0.00133562	0.99705648	0	137	506	711085136	711085136	147
1.645405	-0.058777	0.017578	0.033997	0	0.0578690	0.0055256	0.9843140	0	0.06092262	0.00059748	0.99690676	0	153	506	-1881531255	-1881531255	147
1.645417	-0.048096	0.022949	0.047852	0	0.0582008	0.0058022	0.9839211	0	0.06072998	0.00027347	0.99700022	0	169	506	-1131738494	-1131738494	147
1.645430	-0.054199	0.017822	0.057251	0	0.0582981	0.0061970	0.9843674	0	0.06092191	0.00077033	0.99751401	0	185	506	-1623748220	-1623748220	147
1.645442	-0.065308	0.006836	0.047241	0	0.0587807	0.0062466	0.9852829	0	0.06183553	0.00175428	0.99826813	0	201	506	932918307	932918307	147
1.645474	-0.058777	0.000061	0.029053	0	0.0594578	0.0060196	0.9857903	0	0.06268144	0.00261569	0.99907017	0	217	505	1048607961	1048607961	147
1.645486	-0.050415	0.006226	0.026062	0	0.0599537	0.0058727	0.9852848	0	0.06280947	0.00306010	0.99955988	0	233	507	1688105001	1688105001	147
1.645498	-0.052063	0.015747	0.042236	0	0.0599613	0.0057659	0.9841042	0	0.06265497	0.00320983	0.99945235	0	249	507	1363270075	1363270075	147
1.645527	-0.052246	0.020020	0.056030	0	0.0594597	0.0057564	0.9832630	0	0.06256676	0.00341201	0.99887633	0	9	507	-1194091291	-1194091291	147
1.645538	-0.056030	0.022522	0.051270	0	0.0588169	0.0058422	0.9829235	0	0.06243229	0.00331950	0.99814272	0	25	506	-851276299	-851276299	147
1.645550	-0.061340	0.025635	0.041687	0	0.0583820	0.0057220	0.9829731	0	0.06229639	0.00242877	0.99764109	0	41	506	-1708410423	-1708410423	147
1.645561	-0.055359	0.022644	0.043640	0	0.0582371	0.0054302	0.9841175	0	0.06194949	0.00151992	0.99781680	0	57	506	750632316	750632316	147
1.645594	-0.052551	0.010132	0.054321	0	0.0582733	0.0050011	0.9861412	0	0.06118321	0.00161123	0.99868584	0	73	506	-2026373891	-2026373891	147
1.645605	-0.060852	0.000122	0.065491	0	0.0583782	0.0045834	0.9869900	0	0.06052017	0.00218678	0.99970651	0	89	507	-1847581861	-1847581861	147
1.645617	-0.065430	0.006226	0.072144	0	0.0583057	0.0048542	0.9857578	0	0.06007338	0.00220156	1.00029778	0	105	506	-774817159	-774817159	147
1.645628	-0.063721	0.022583	0.069946	0	0.0581608	0.0059128	0.9841576	0	0.05967999	0.00180674	1.00019145	0	121	506	1737301	1737301	147
1.645660	-0.058655	0.028564	0.061401	0	0.0584221	0.0069542	0.9835072	0	0.05983567	0.00141215	0.99960446	0	137	507	1961167188	1961167188	147
1.645672	-0.052246	0.021240	0.050781	0	0.0589008	0.0073090	0.9837322	0	0.06048918	0.00110030	0.99886394	0	153	507	-1380555608	-1380555608	147
1.645683	-0.050537	0.016418	0.035339	0	0.0591164	0.0069065	0.9848080	0	0.06102276	0.00139666	0.99806499	0	169	507	-2032057565	-2032057565	147
1.669309	-0.054016	0.012451	0.019714	0	0.0591736	0.0062466	0.9859867	0	0.06138897	0.00223565	0.99750018	0	185	506	2063860996	2063860996	147
1.669336	-0.053467	-0.000916	0.010559	0	0.0592136	0.0060368	0.9858570	0	0.06165051	0.00255489	0.99756765	0	201	506	1795774800	1795774800	147
1.669348	-0.045166	-0.012573	0.004578	0	0.0590725	0.0062084	0.9848003	0	0.06164479	0.00203061	0.99801779	0	217	506	253988799	253988799	147
1.693340	-0.042053	-0.008240	0.007141	0	0.0586948	0.0061016	0.9841251	0	0.06146646	0.00144482	0.99811888	0	233	506	-1219127339	-1219127339	147
1.693400	-0.050110	0.006348	0.023621	0	0.0581055	0.0056667	0.9837513	0	0.06138587	0.00127268	0.99774480	0	249	506	-2044005567	-2044005567	147
1.693412	-0.057983	0.017090	0.043091	0	0.0575294	0.0051022	0.9833584	0	0.06145382	0.00114274	0.99729848	0	9	506	1370271986	1370271986	147
1.717296	-0.059021	0.019714	0.056519	0	0.0571938	0.0044785	0.9833069	0	0.06148052	0.00091696	0.99679160	0	25	506	93762463	93762463	147
1.717326	-0.057678	0.016235	0.063293	0	0.0570049	0.0042610	0.9835682	0	0.06131482	0.00099182	0.99634767	0	41	507	1686510821	1686510821	147
1.717397	-0.058289	0.009155	0.064941	0	0.0572453	0.0046768	0.9838982	0	0.06116843	0.00127506	0.99627829	0	57	507	-1950610735	-1950610735	147
1.741220	-0.059509	0.008362	0.060974	0	0.0579739	0.0053997	0.9842644	0	0.06141257	0.00127029	0.99617028	0	73	507	259235483	259235483	147
1.741249	-0.060852	0.017151	0.050964	0	0.0585728	0.0061378	0.9843712	0	0.06206656	0.00111532	0.99570155	0	89	506	-1456801708	-1456801708	147
1.741296	-0.067444	0.024719	0.036926	0	0.0587578	0.0065327	0.9841022	0	0.06290674	0.00154853	0.99550819	0	105	506	1354367074	1354367074	147
1.765284	-0.077209	0.021179	0.024292	0	0.0587921	0.0063286	0.9839382	0	0.06374526	0.00255179	0.99608159	0	121	506	1740331702	1740331702	147
1.765309	-0.075195	0.009033	0.019897	0	0.0589256	0.0059414	0.9841843	0	0.06405306	0.00317073	0.99695587	0	137	506	-19968123	-19968123	147
1.765322	-0.061890	0.004333	0.024353	0	0.0590611	0.0060787	0.9845009	0	0.06334352	0.00301981	0.99758220	0	153	506	804760825	804760825	147
1.789179	-0.049072	0.008362	0.029846	0	0.0590515	0.0065403	0.9841747	0	0.06242132	0.00258374	0.99780989	0	169	506	-1495726493	-1495726493	147
1.789210	-0.034973	0.007690	0.025879	0	0.0588818	0.0061874	0.9832134	0	0.06233048	0.00229716	0.99775314	0	185	506	-2068086024	-2068086024	147
1.789228	-0.030518	0.005310	0.022034	0	0.0585613	0.0051098	0.9825268	0	0.06247878	0.00212288	0.99763727	0	201	507	-1457790448	-1457790448	147
1.813135	-0.051208	0.010986	0.030151	0	0.0581799	0.0047398	0.9828644	0	0.06195712	0.00175786	0.99758148	0	217	507	109057359	109057359	147
1.813208	-0.076721	0.022827	0.035217	0	0.0579109	0.0052814	0.9840679	0	0.06115723	0.00118756	0.99803114	0	233	507	-1834024380	-1834024380	147
1.813226	-0.085876	0.031555	0.033020	0	0.0579357	0.0057106	0.9850330	0	0.06073713	0.00099802	0.99904037	0	249	507	-88596393	-88596393	147
1.837101	-0.077087	0.032593	0.037903	0	0.0582504	0.0055065	0.9850616	0	0.06079674	0.00165176	0.99978733	0	9	506	-1113025047	-1113025047	147
1.837168	-0.057922	0.031433	0.043579	0	0.0586185	0.0051765	0.9845963	0	0.06115150	0.00268030	0.99980688	0	25	506	-1765809211	-1765809211	147
1.837182	-0.052979	0.032837	0.041565	0	0.0589218	0.0053864	0.9840565	0	0.06133437	0.00334430	0.99921775	0	41	506	492964780	492964780	147
1.861077	-0.068237	0.033691	0.040710	0	0.0591049	0.0059204	0.9836273	0	0.06131363	0.00337362	0.99844003	0	57	506	200177960	200177960	147
1.861099	-0.076233	0.028076	0.041992	0	0.0591354	0.0062408	0.9837532	0	0.06176424	0.00263739	0.99779272	0	73	506	757716365	757716365	147
1.861145	-0.067017	0.017761	0.040771	0	0.0590363	0.0062313	0.9844189	0	0.06258202	0.00152135	0.99755120	0	89	506	969049124	969049124	147
1.885038	-0.053223	0.006775	0.037109	0	0.0586681	0.0060349	0.9848289	0	0.06292176	0.00116396	0.99798012	0	105	507	-461090824	-461090824	147
1.885068	-0.044922	-0.005859	0.037048	0	0.0581264	0.0058880	0.9846706	0	0.06254959	0.00166440	0.99854064	0	121	507	-1873172201	-1873172201	147
1.885086	-0.049927	-0.010132	0.049377	0	0.0578537	0.0059528	0.9845581	0	0.06183743	0.00186729	0.99869347	0	137	506	-1677941744	-1677941744	147
1.908997	-0.059509	0.004883	0.061157	0	0.0576172	0.0060596	0.9845905	0	0.06111979	0.00156331	0.99855900	0	153	507	1426570529	1426570529	147
1.909020	-0.062195	0.020996	0.060730	0	0.0570984	0.0058918	0.9842339	0	0.06048894	0.00140548	0.99817920	0	169	506	-433121252	-433121252	147
1.909033	-0.067505	0.016968	0.059387	0	0.0568466	0.0055828	0.9839211	0	0.06017208	0.00140762	0.99763966	0	185	506	-1185188988	-1185188988	147
1.932987	-0.072510	0.002625	0.059509	0	0.0571442	0.0055256	0.9843063	0	0.06046009	0.00128675	0.99754548	0	201	506	-1653689534	-1653689534	147
1.933019	-0.062744	-0.001099	0.055664	0	0.0578823	0.0056133	0.9848480	0	0.06121492	0.00139832	0.99825072	0	217	506	50220430	50220430	147
1.933037	-0.045532	0.005127	0.051331	0	0.0590591	0.0056152	0.9851341	0	0.06186056	0.00195885	0.99898553	0	233	506	918352568	918352568	147
1.956975	-0.034912	0.006531	0.048523	0	0.0603142	0.0057678	0.9851952	0	0.06191969	0.00235677	0.99911499	0	249	506	1602613675	1602613675	147
1.957071	-0.036072	0.004150	0.041382	0	0.0609760	0.0063095	0.9847775	0	0.06176543	0.00252295	0.99933028	0	9	506	1939651740	1939651740	147
1.957084	-0.045471	0.002808	0.027283	0	0.0605869	0.0070152	0.9840088	0	0.06203032	0.00280190	1.00000525	0	25	507	1626569551	1626569551	147
1.980942	-0.054443	0.001770	0.011047	0	0.0595493	0.0072803	0.9834213	0	0.06251097	0.00288391	1.00016880	0	41	507	2780454	2780454	147
1.980973	-0.057373	0.011230	0.000427	0	0.0588303	0.0066986	0.9833488	0	0.06269884	0.00277567	0.99942613	0	57	507	-1331817531	-1331817531	147
1.981033	-0.056702	0.033875	0.007629	0	0.0586605	0.0056973	0.9835129	0	0.06235600	0.00277710	0.99874258	0	73	506	1920327513	1920327513	147
2.004941	-0.060730	0.051331	0.034668	0	0.0584888	0.0051174	0.9835663	0	0.06163955	0.00270247	0.99864626	0	89	506	-2058071801	-2058071801	147
2.004969	-0.060791	0.051331	0.058105	0	0.0578022	0.0050583	0.9838276	0	0.06110549	0.00243115	0.99879408	0	105	506	-198425453	-198425453	147
2.005030	-0.050049	0.037842	0.061096	0	0.0568314	0.0049419	0.9842434	0	0.06079531	0.00208092	0.99915671	0	121	506	714843191	714843191	147
2.028872	-0.044189	0.017273	0.058472	0	0.0563679	0.0047989	0.9841919	0	0.06039000	0.00181389	0.99963808	0	137	506	2054627198	2054627198	147
2.028897	-0.050293	0.003174	0.058716	0	0.0566235	0.0049534	0.9838066	0	0.06011701	0.00190878	0.99947286	0	153	506	1272291963	1272291963	147
2.028913	-0.060303	0.005859	0.049011	0	0.0574703	0.0052166	0.9837914	0	0.06042290	0.00236893	0.99864984	0	169	506	-1962489336	-1962489336	147
2.052897	-0.061279	0.011230	0.032959	0	0.0586948	0.0055733	0.9843044	0	0.06134176	0.00281930	0.99829102	0	185	507	1844227292	1844227292	147
2.052921	-0.046875	0.011353	0.027405	0	0.0594749	0.0060711	0.9848137	0	0.06223273	0.00292015	0.99844956	0	201	507	-41860767	-41860767	147
2.052933	-0.029968	0.017883	0.033020	0	0.0594521	0.0065155	0.9849567	0	0.06263661	0.00268960	0.99843454	0	217	506	129913099	129913099	147
2.076807	-0.024597	0.027222	0.040161	0	0.0592842	0.0068035	0.9848213	0	0.06271577	0.00259280	0.99845529	0	233	506	311032481	311032481	147
2.076871	-0.033630	0.024536	0.042725	0	0.0591946	0.0066605	0.9844971	0	0.06244063	0.00275445	0.99836993	0	249	506	-559192441	-559192441	147
2.076886	-0.050354	0.011292	0.039185	0	0.0588531	0.0061150	0.9842224	0	0.06200981	0.00269389	0.99785805	0	9	506	-1765192403	-1765192403	147
2.100815	-0.061523	0.000732	0.035400	0	0.0582294	0.0056381	0.9844532	0	0.06174827	0.00237513	0.99755359	0	25	506	307777913	307777913	147
2.100867	-0.063599	0.000183	0.040955	0	0.0573025	0.0052338	0.9850655	0	0.06141853	0.00208831	0.99773955	0	41	506	771150182	771150182	147
2.100880	-0.064758	0.004211	0.054382	0	0.0565166	0.0046978	0.9853687	0	0.06096911	0.00151801	0.99822092	0	57	506	-1939848581	-1939848581	147
2.124746	-0.071472	0.003784	0.066101	0	0.0566750	0.0044651	0.9854050	0	0.06060410	0.00061035	0.99902511	0	73	507	-815346916	-815346916	147
2.124772	-0.078857	-0.000122	0.069214	0	0.0577240	0.0049286	0.9853077	0	0.06031680	0.00030017	0.99975157	0	89	506	1316436675	1316436675	147
2.124831	-0.077271	-0.000549	0.059692	0	0.0589046	0.0057583	0.9847469	0	0.06018138	0.00102925	1.00002146	0	105	507	-1772397991	-1772397991	147
2.148697	-0.067261	0.003967	0.041077	0	0.0595322	0.0064945	0.9842033	0	0.06059027	0.00209260	0.99974942	0	121	507	-1053556180	-1053556180	147
2.148718	-0.057190	0.006897	0.026794	0	0.0595570	0.0068607	0.9842453	0	0.06172061	0.00271273	0.99882793	0	137	507	1045524414	1045524414	147
2.148731	-0.056824	0.004883	0.025085	0	0.0595055	0.0067425	0.9845810	0	0.06289983	0.00263834	0.99813008	0	153	506	-2123058985	-2123058985	147
2.172669	-0.066772	0.001038	0.024841	0	0.0597057	0.0065079	0.9846783	0	0.06336784	0.00210357	0.99845457	0	169	506	-1321147307	-1321147307	147
2.172702	-0.069275	0.000488	0.015747	0	0.0599098	0.0065403	0.9845181	0	0.06329036	0.00145411	0.99886274	0	185	506	1807478710	1807478710	147
2.172720	-0.056763	0.002686	0.010376	0	0.0596809	0.0065689	0.9845676	0	0.06318283	0.00118732	0.99856496	0	201	506	-1668655348	-1668655348	147
2.196656	-0.049316	0.003418	0.020508	0	0.0591660	0.0064602	0.9847088	0	0.06278682	0.00169158	0.99809504	0	217	506	1177269135	1177269135	147
2.196680	-0.054077	0.011902	0.035095	0	0.0587463	0.0064640	0.9845982	0	0.06167960	0.00220895	0.99818802	0	233	507	-975180680	-975180680	147
2.196693	-0.060486	0.028320	0.044189	0	0.0580673	0.0062466	0.9844704	0	0.06058645	0.00200415	0.99908471	0	249	506	-520012677	-520012677	147
2.220628	-0.063049	0.033020	0.051880	0	0.0570793	0.0056286	0.9845734	0	0.06009722	0.00135612	1.00014567	0	9	507	-1740450840	-1740450840	147
2.220682	-0.059448	0.026978	0.059448	0	0.0567284	0.0053463	0.9848480	0	0.05972004	0.00041151	1.00033712	0	25	507	1159737742	1159737742	147
2.220695	-0.052551	0.026489	0.060242	0	0.0573502	0.0055828	0.9849167	0	0.05928588	-0.00023508	0.99963760	0	41	507	1453105306	1453105306	147
2.244626	-0.046997	0.024414	0.047363	0	0.0582619	0.0060101	0.9846153	0	0.05918884	0.00027323	0.99917388	0	57	506	-417031055	-417031055	147
2.244650	-0.050110	0.006226	0.028320	0	0.0589523	0.0065842	0.9842262	0	0.05982375	0.00143814	0.99938679	0	73	506	568919767	568919767	147
2.244694	-0.060486	-0.014771	0.017639	0	0.0595322	0.0068302	0.9838753	0	0.06110930	0.00240111	0.99919653	0	89	506	-818808456	-818808456	147
2.268555	-0.063538	-0.019897	0.016785	0	0.0600510	0.0065689	0.9837933	0	0.06233048	0.00295210	0.99811053	0	105	506	1767716843	1767716843	147
2.268580	-0.061707	-0.012329	0.020203	0	0.0600834	0.0063763	0.9842091	0	0.06296182	0.00285506	0.99732018	0	121	506	-1120958028	-1120958028	147
2.268623	-0.057739	-0.004639	0.024231	0	0.0593853	0.0061913	0.9847546	0	0.06285477	0.00215530	0.99763513	0	137	506	-330377960	-330377960	147
2.357475	-0.048157	-0.008484	0.029053	0	0.0583858	0.0057545	0.9851627	0	0.06199932	0.00169325	0.99827337	0	153	506	1915936451	1915936451	147
2.357497	-0.041382	-0.018738	0.040894	0	0.0576057	0.0054550	0.9854774	0	0.06086326	0.00190949	0.99841809	0	169	507	1133059535	1133059535	147
2.357509	-0.038818	-0.019348	0.058350	0	0.0569859	0.0055428	0.9853802	0	0.05985689	0.00219035	0.99847913	0	185	507	1391393014	1391393014	147
2.357554	-0.039917	-0.010986	0.069031	0	0.0565510	0.0056438	0.9847603	0	0.05910683	0.00202727	0.99889946	0	201	507	1853119025	1853119025	147
2.357565	-0.043518	0.000000	0.070190	0	0.0566521	0.0055904	0.9842548	0	0.05904627	0.00143623	0.99932075	0	217	506	-975856393	-975856393	147
2.357577	-0.045227	0.008179	0.066528	0	0.0572071	0.0059814	0.9843369	0	0.05974531	0.00070167	0.99950075	0	233	506	-43573516	-43573516	147
2.357589	-0.046265	0.007263	0.057678	0	0.0580902	0.0068455	0.9844875	0	0.06087542	0.00035405	0.99952030	0	249	506	411566700	411566700	147
2.357623	-0.044434	0.004028	0.048706	0	0.0591946	0.0073719	0.9841290	0	0.06217408	0.00048947	0.99916959	0	9	506	-1606246427	-1606246427	147
2.357635	-0.036133	0.000671	0.047485	0	0.0600624	0.0073509	0.9837055	0	0.06303549	0.00071096	0.99825430	0	25	506	-607656752	-607656752	147
2.357646	-0.024963	-0.008423	0.044189	0	0.0603561	0.0071239	0.9838295	0	0.06300974	0.00096917	0.99746871	0	41	506	-2009568719	-2009568719	147
2.357674	-0.023865	-0.011475	0.034058	0	0.0600739	0.0068645	0.9840946	0	0.06253314	0.00122166	0.99758029	0	57	506	636227652	636227652	147
2.421377	-0.036987	-0.002441	0.029480	0	0.0594463	0.0065384	0.9838562	0	0.06251597	0.00126004	0.99810171	0	73	507	-789277653	-789277653	147
2.421400	-0.047852	0.007141	0.031311	0	0.0587578	0.0060844	0.9835110	0	0.06294489	0.00135183	0.99819899	0	89	507	-661218139	-661218139	147
2.421412	-0.040588	0.012756	0.036011	0	0.0578671	0.0055218	0.9835548	0	0.06278586	0.00162935	0.99781442	0	105	507	431815267	431815267	147
2.421458	-0.027771	0.012573	0.044250	0	0.0567017	0.0049686	0.9837570	0	0.06160450	0.00160599	0.99734139	0	121	506	739942532	739942532	147
2.421470	-0.032471	0.005676	0.052551	0	0.0558205	0.0048161	0.9839249	0	0.06011677	0.00110412	0.99729991	0	137	506	-871709316	-871709316	147
2.421481	-0.045227	-0.002930	0.057007	0	0.0557346	0.0051441	0.9842644	0	0.05922723	0.00075674	0.99799919	0	153	506	385595025	385595025	147
2.421493	-0.052551	-0.008606	0.056458	0	0.0562725	0.0053902	0.9847164	0	0.05908155	0.00102830	0.99885607	0	169	506	1939999847	1939999847	147
2.421532	-0.062622	-0.006653	0.051453	0	0.0571423	0.0053406	0.9849815	0	0.05943942	0.00136852	0.99904513	0	185	506	1067346532	1067346532	147
2.445377	-0.071350	0.004822	0.033630	0	0.0581188	0.0054054	0.9850750	0	0.06019545	0.00138640	0.99878049	0	201	506	-1273983060	-1273983060	147
2.445398	-0.069946	0.023010	0.003723	0	0.0588627	0.0057793	0.9847870	0	0.06099534	0.00166702	0.99871302	0	217	506	1017494488	1017494488	147
2.445439	-0.064636	0.036072	-0.008423	0	0.0594254	0.0061302	0.9839115	0	0.06165981	0.00224638	0.99885726	0	233	507	1342636697	1342636697	147
2.469311	-0.058228	0.032349	0.005371	0	0.0600224	0.0061207	0.9830704	0	0.06265926	0.00232530	0.99887156	0	249	507	1144249860	1144249860	147
2.469339	-0.044861	0.024170	0.018311	0	0.0606136	0.0060673	0.9825974	0	0.06387877	0.00198197	0.99864388	0	9	507	1204211777	1204211777	147
2.469355	-0.028137	0.019653	0.022461	0	0.0608368	0.0063496	0.9825916	0	0.06422710	0.00190544	0.99855042	0	25	506	-1206480618	-1206480618	147
2.493322	-0.017090	0.014160	0.027954	0	0.0605469	0.0066566	0.9834919	0	0.06345487	0.00189304	0.99897552	0	41	506	-298198019	-298198019	147
2.493346	-0.011414	0.017822	0.039917	0	0.0600529	0.0066147	0.9845867	0	0.06249094	0.00146103	0.99934483	0	57	506	630832682	630832682	147
2.493358	-0.012573	0.031250	0.060791	0	0.0592117	0.0063496	0.9850502	0	0.06183910	0.00097632	0.99884629	0	73	506	43147926	43147926	147
2.517298	-0.022095	0.041260	0.088562	0	0.0580826	0.0060654	0.9853325	0	0.06136370	0.00094342	0.99809456	0	89	506	-675508925	-675508925	147
2.517362	-0.037109	0.042480	0.106506	0	0.0573959	0.0057297	0.9855499	0	0.06100988	0.00110602	0.99805975	0	105	506	-716408545	-716408545	147
2.517374	-0.054443	0.041138	0.100586	0	0.0573578	0.0053005	0.9854507	0	0.06092405	0.00104690	0.99833155	0	121	506	-1886435177	-1886435177	147
2.541248	-0.062866	0.046814	0.078247	0	0.0576305	0.0048866	0.9852028	0	0.06116676	0.00104523	0.99833250	0	137	506	-1162623617	-1162623617	147
2.541300	-0.057190	0.053833	0.049011	0	0.0583229	0.0048180	0.9851189	0	0.06142998	0.00159097	0.99838376	0	153	507	-1072082104	-1072082104	147
2.541313	-0.053650	0.053955	0.021301	0	0.0594864	0.0053864	0.9853306	0	0.06150889	0.00240350	0.99864578	0	169	507	-2129103147	-2129103147	147
2.565211	-0.064514	0.050659	0.008179	0	0.0603199	0.0062294	0.9853764	0	0.06159115	0.00297284	0.99899268	0	185	507	1731945349	1731945349	147
2.565235	-0.078979	0.041199	0.008789	0	0.0603237	0.0068493	0.9848251	0	0.06183267	0.00342464	0.99944329	0	201	506	-1799595224	-1799595224	147
2.565294	-0.078979	0.018921	0.010742	0	0.0599480	0.0074863	0.9841061	0	0.06229687	0.00389695	0.99942279	0	217	506	-1098869703	-1098869703	147
2.589165	-0.064331	-0.005188	0.013977	0	0.0594177	0.0080509	0.9839954	0	0.06269860	0.00409389	0.99872541	0	233	506	883040793	883040793	147
2.589193	-0.050781	-0.014038	0.024963	0	0.0584602	0.0079803	0.9845505	0	0.06247997	0.00379395	0.99842191	0	249	506	-275310841	-275310841	147
2.589211	-0.043335	-0.007141	0.034241	0	0.0571022	0.0076141	0.9850960	0	0.06172037	0.00299788	0.99886322	0	9	507	-463970603	-463970603	147
2.613094	-0.038391	0.004211	0.035767	0	0.0558319	0.0075378	0.9852467	0	0.06091547	0.00206923	0.99922061	0	25	506	1928376349	1928376349	147
2.613117	-0.038269	0.007629	0.036560	0	0.0553226	0.0073586	0.9850826	0	0.06036592	0.00168848	0.99923110	0	41	506	-1965840396	-1965840396	147
2.613129	-0.041382	0.004028	0.034424	0	0.0558777	0.0066319	0.9848595	0	0.06002831	0.00165772	0.99939156	0	57	507	669284745	669284745	147
2.637120	-0.044373	0.002197	0.028748	0	0.0570278	0.0059433	0.9848156	0	0.05961323	0.00135183	0.99967217	0	73	507	1016263089	1016263089	147
2.637158	-0.043274	0.002441	0.029907	0	0.0581493	0.0058575	0.9846344	0	0.05927801	0.00110722	0.99948883	0	89	507	-1140069211	-1140069211	147
2.637175	-0.034180	0.009155	0.038208	0	0.0589848	0.0059357	0.9839458	0	0.05954790	0.00123954	0.99883747	0	105	506	1013095558	1013095558	147
2.661061	-0.030945	0.017212	0.049194	0	0.0598431	0.0058956	0.9833317	0	0.06069517	0.00144577	0.99833608	0	121	506	1136560928	1136560928	147
2.661135	-0.046082	0.010986	0.061035	0	0.0609150	0.0059967	0.9833984	0	0.06240654	0.00139642	0.99843287	0	137	506	-424625116	-424625116	147
2.661151	-0.059387	-0.001221	0.068115	0	0.0613956	0.0061798	0.9839859	0	0.06376791	0.00100040	0.99891520	0	153	506	95349197	95349197	147
2.685014	-0.052368	-0.002869	0.070312	0	0.0604668	0.0062447	0.9843712	0	0.06420851	0.00055695	0.99914789	0	169	506	-1683342763	-1683342763	147
2.685061	-0.041260	0.006897	0.071045	0	0.0586014	0.0060997	0.9842167	0	0.06387568	0.00052762	0.99883127	0	185	506	-626905355	-626905355	147
2.685110	-0.044373	0.020752	0.071228	0	0.0569592	0.0057220	0.9843979	0	0.06294584	0.00092721	0.99847579	0	201	506	-751015196	-751015196	147
2.708992	-0.055359	0.026489	0.068726	0	0.0558739	0.0052795	0.9849567	0	0.06163239	0.00119734	0.99864721	0	217	507	-878948670	-878948670	147
2.709014	-0.058899	0.021667	0.060181	0	0.0549660	0.0050106	0.9847832	0	0.06036711	0.00122213	0.99900365	0	233	507	1851574069	1851574069	147
2.709060	-0.053833	0.021790	0.047546	0	0.0544930	0.0049362	0.9841728	0	0.05954099	0.00145078	0.99928665	0	249	507	958337682	958337682	147
2.732925	-0.050964	0.028748	0.037354	0	0.0550098	0.0051632	0.9841003	0	0.05950761	0.00167990	0.99990082	0	9	506	1583987646	1583987646	147
2.732947	-0.050049	0.028870	0.028809	0	0.0563812	0.0057888	0.9843712	0	0.06015205	0.00154614	1.00062633	0	25	506	778972838	778972838	147
2.732959	-0.042419	0.026001	0.019592	0	0.0581551	0.0061359	0.9843159	0	0.06081796	0.00138283	1.00077367	0	41	506	-1365368229	-1365368229	147
2.756910	-0.032654	0.029663	0.012329	0	0.0597286	0.0058708	0.9841251	0	0.06144857	0.00140834	1.00027180	0	57	506	-2071073874	-2071073874	147
2.756934	-0.029114	0.030090	0.004578	0	0.0606136	0.0056419	0.9845009	0	0.06259990	0.00151539	0.99963427	0	73	506	1449346281	1449346281	147
2.756946	-0.032776	0.019714	-0.001282	0	0.0608826	0.0057430	0.9852848	0	0.06404972	0.00150251	0.99931931	0	89	506	1179777625	1179777625	147
2.780869	-0.044189	0.010254	0.006775	0	0.0605812	0.0058384	0.9855804	0	0.06475258	0.00119805	0.99922895	0	105	506	-312273731	-312273731	147
2.780980	-0.054871	0.011597	0.022888	0	0.0596046	0.0054855	0.9850864	0	0.06428909	0.00088596	0.99905014	0	121	507	-1923878360	-1923878360	147
2.781000	-0.054077	0.018799	0.033386	0	0.0580750	0.0049648	0.9844360	0	0.06315851	0.00100636	0.99870586	0	137	507	-667119170	-667119170	147
2.804916	-0.047729	0.026550	0.039490	0	0.0565453	0.0050812	0.9840622	0	0.06182146	0.00165319	0.99837661	0	153	506	-1082931030	-1082931030	147
2.805003	-0.046021	0.033875	0.046753	0	0.0558243	0.0056858	0.9840107	0	0.06037855	0.00231147	0.99822426	0	169	507	-1675085412	-1675085412	147
2.805023	-0.047241	0.035156	0.058594	0	0.0560703	0.0061150	0.9844131	0	0.05888796	0.00245237	0.99827147	0	185	506	-759909845	-759909845	147
2.828852	-0.046387	0.027161	0.070801	0	0.0566101	0.0062389	0.9850464	0	0.05781627	0.00241923	0.99848247	0	201	506	767736691	767736691	147
2.828883	-0.046997	0.012817	0.074097	0	0.0569839	0.0060902	0.9854736	0	0.05789685	0.00270176	0.99874330	0	217	506	-903807899	-903807899	147
2.828940	-0.048767	-0.001160	0.068359	0	0.0574665	0.0060101	0.9854221	0	0.05908728	0.00306082	0.99919248	0	233	506	-1950253673	-1950253673	147
2.852810	-0.048706	-0.006104	0.058716	0	0.0582638	0.0063152	0.9847660	0	0.06052923	0.00305080	0.99985623	0	249	506	1984100942	1984100942	147
2.852836	-0.054138	0.000549	0.043884	0	0.0592060	0.0066319	0.9839497	0	0.06171107	0.00273871	1.00003171	0	9	507	1189248586	1189248586	147
2.852852	-0.061096	0.011292	0.022095	0	0.0598679	0.0066738	0.9837818	0	0.06243467	0.00247407	0.99930549	0	25	506	-549415421	-549415421	147
2.876811	-0.055115	0.014465	0.003418	0	0.0596676	0.0064487	0.9840984	0	0.06236911	0.00237370	0.99833894	0	41	507	154746733	154746733	147
2.876834	-0.045959	0.009888	0.000244	0	0.0589638	0.0061646	0.9843063	0	0.06171155	0.00236654	0.99769402	0	57	507	-637396194	-637396194	147
2.876847	-0.049683	0.005798	0.012512	0	0.0584965	0.0061092	0.9845181	0	0.06094813	0.00224280	0.99718976	0	73	507	-1630568800	-1630568800	147
2.900768	-0.056763	0.000671	0.025757	0	0.0580235	0.0059128	0.9847736	0	0.06023741	0.00192642	0.99697733	0	89	506	-1314143033	-1314143033	147
2.900791	-0.055115	-0.005493	0.025208	0	0.0571976	0.0054569	0.9851570	0	0.05969501	0.00183916	0.99752188	0	105	506	-1831787701	-1831787701	147
2.900803	-0.052490	-0.005737	0.020508	0	0.0565834	0.0052814	0.9856873	0	0.05935192	0.00205612	0.99854016	0	121	506	-1890342656	-1890342656	147
2.924756	-0.050842	0.001709	0.027954	0	0.0569725	0.0054417	0.9854736	0	0.05916405	0.00197911	0.99924445	0	137	506	899718804	899718804	147
2.924813	-0.040161	0.017578	0.034241	0	0.0580673	0.0057240	0.9844379	0	0.05927849	0.00136065	0.99937034	0	153	506	-1836126404	-1836126404	147
2.924826	-0.029480	0.037292	0.028992	0	0.0588131	0.0060635	0.9838295	0	0.05980206	0.00077391	0.99936628	0	169	506	-1472306356	-1472306356	147
2.948724	-0.032898	0.050293	0.022339	0	0.0593987	0.0062675	0.9840355	0	0.06065750	0.00092745	0.99942255	0	185	507	846800565	846800565	147
2.948776	-0.043335	0.052612	0.018982	0	0.0605030	0.0064411	0.9844532	0	0.06174850	0.00155020	0.99937820	0	201	507	1739802322	1739802322	147
2.948789	-0.051514	0.046631	0.020447	0	0.0612793	0.0067368	0.9846535	0	0.06292200	0.00184822	0.99925876	0	217	507	945200673	945200673	147
2.972676	-0.050781	0.034851	0.028259	0	0.0606670	0.0067863	0.9847794	0	0.06363225	0.00185323	0.99904728	0	233	507	139099331	139099331	147
2.972698	-0.039001	0.023560	0.039917	0	0.0592709	0.0064545	0.9851685	0	0.06320190	0.00209928	0.99900484	0	249	506	1767852112	1767852112	147
2.972742	-0.035767	0.011963	0.049988	0	0.0582924	0.0060825	0.9853745	0	0.06183076	0.00259948	0.99945617	0	9	506	926845224	926845224	147
2.996667	-0.053040	-0.002563	0.053955	0	0.0577469	0.0055923	0.9846916	0	0.06048036	0.00279307	0.99998617	0	25	506	-1830273757	-1830273757	147
2.996689	-0.067993	-0.007874	0.055969	0	0.0572586	0.0047970	0.9837036	0	0.05973744	0.00236440	0.99996233	0	41	506	-1699915431	-1699915431	147
2.996701	-0.056152	-0.004272	0.057312	0	0.0570774	0.0042877	0.9834919	0	0.05933690	0.00186920	0.99943876	0	57	506	36889110	36889110	147
3.020707	-0.034485	-0.009155	0.057007	0	0.0570850	0.0046978	0.9842281	0	0.05880618	0.00173306	0.99905992	0	73	507	-644030410	-644030410	147
3.020735	-0.036743	-0.019714	0.059875	0	0.0569782	0.0054779	0.9852638	0	0.05851221	0.00148106	0.99916768	0	89	506	-128300303	-128300303	147
3.020755	-0.053345	-0.021362	0.063599	0	0.0573654	0.0058022	0.9855690	0	0.05899668	0.00102067	0.99948573	0	105	507	1998489022	1998489022	147
3.044589	-0.053650	-0.017395	0.058533	0	0.0585976	0.0057316	0.9848347	0	0.05979395	0.00101614	0.99950027	0	121	507	-89788319	-89788319	147
3.044646	-0.038269	-0.014954	0.041077	0	0.0595703	0.0059071	0.9842091	0	0.06019330	0.00172567	0.99915528	0	137	507	1331618829	1331618829	147
3.044658	-0.027161	-0.015686	0.017517	0	0.0595913	0.0065689	0.9844284	0	0.06030631	0.00268912	0.99893546	0	153	506	1147702047	1147702047	147
3.068561	-0.026978	-0.017151	-0.001648	0	0.0594997	0.0071678	0.9844971	0	0.06063604	0.00348091	0.99881625	0	169	506	179707812	179707812	147
3.068627	-0.031311	-0.011475	-0.009338	0	0.0598621	0.0073433	0.9839058	0	0.06118131	0.00398493	0.99836254	0	185	506	1088141939	1088141939	147
3.068645	-0.036987	0.000488	-0.003540	0	0.0597572	0.0071030	0.9837189	0	0.06158304	0.00398779	0.99784017	0	201	506	1071127303	1071127303	147
3.117504	-0.041382	0.013733	0.014343	0	0.0583191	0.0063515	0.9841385	0	0.06146431	0.00332165	0.99784064	0	217	506	1477627352	1477627352	147
3.117536	-0.031738	0.026184	0.036011	0	0.0570698	0.0054893	0.9836674	0	0.06078553	0.00221014	0.99808121	0	233	506	-273425497	-273425497	147
3.117615	-0.024536	0.033752	0.051514	0	0.0574951	0.0055027	0.9830856	0	0.06044507	0.00146675	0.99800611	0	249	506	1497630290	1497630290	147
3.117632	-0.049072	0.032837	0.063171	0	0.0579948	0.0059357	0.9854431	0	0.06089425	0.00177288	0.99859142	0	9	507	798680925	798680925	147
3.117649	-0.067810	0.028259	0.077393	0	0.0576992	0.0053730	0.9882240	0	0.06124759	0.00238967	1.00074601	0	25	507	-514254370	-514254370	147
3.117701	-0.052124	0.026611	0.090637	0	0.0577488	0.0045948	0.9864368	0	0.06113648	0.00211978	1.00236487	0	41	507	472919715	472919715	147
3.197399	-0.046509	0.022766	0.094116	0	0.0580387	0.0049076	0.9829197	0	0.06099963	0.00136781	1.00122786	0	57	507	-1292533672	-1292533672	147
3.197423	-0.060608	0.020752	0.079529	0	0.0581741	0.0058594	0.9830341	0	0.06096816	0.00121689	0.99894738	0	73	506	1175167026	1175167026	147
3.197435	-0.057312	0.032104	0.047913	0	0.0582790	0.0064335	0.9852295	0	0.06084895	0.00145030	0.99814177	0	89	506	1041278814	1041278814	147
3.197478	-0.039551	0.043762	0.022217	0	0.0583706	0.0060596	0.9849300	0	0.06073093	0.00139856	0.99845338	0	105	506	1644951266	1644951266	147
3.197490	-0.033875	0.039001	0.020203	0	0.0586281	0.0051003	0.9833469	0	0.06114244	0.00123882	0.99826002	0	121	506	1795350191	1795350191	147
3.197501	-0.041077	0.025269	0.029602	0	0.0588646	0.0046253	0.9841785	0	0.06182241	0.00124216	0.99785566	0	137	506	-1936698489	-1936698489	147
3.197513	-0.054871	0.014526	0.031494	0	0.0587616	0.0054035	0.9856033	0	0.06204844	0.00143814	0.99829626	0	153	506	237398311	237398311	147
3.197548	-0.073730	0.006836	0.025757	0	0.0582638	0.0063076	0.9849415	0	0.06192017	0.00189614	0.99903154	0	169	507	356513177	356513177	147
3.197559	-0.077698	-0.000854	0.026550	0	0.0575676	0.0059299	0.9833050	0	0.06148887	0.00205755	0.99895859	0	185	507	2130369176	2130369176	147
3.197571	-0.060364	-0.004822	0.038818	0	0.0570927	0.0052109	0.9822960	0	0.06067538	0.00150275	0.99822760	0	201	507	-1727687608	-1727687608	147
3.221347	-0.049561	-0.003662	0.052307	0	0.0569420	0.0053768	0.9828300	0	0.06000853	0.00103498	0.99764681	0	217	507	253886969	253886969	147
3.221370	-0.054077	-0.004578	0.057312	0	0.0569000	0.0061016	0.9850044	0	0.05990767	0.00127673	0.99779177	0	233	506	-1033002455	-1033002455	147
3.221382	-0.059448	-0.005859	0.054932	0	0.0570545	0.0067348	0.9869099	0	0.06022334	0.00201631	0.99895191	0	249	506	-1936823951	-1936823951	147
3.245338	-0.055115	-0.002625	0.050415	0	0.0578003	0.0070572	0.9861412	0	0.06086349	0.00288391	1.00040340	0	9	506	-1348804660	-1348804660	147
3.245394	-0.044373	-0.002136	0.047852	0	0.0591125	0.0071201	0.9835949	0	0.06176066	0.00324202	1.00044465	0	25	506	-851725198	-851725198	147
3.245406	-0.041016	-0.006653	0.045349	0	0.0602627	0.0069885	0.9826584	0	0.06258440	0.00281715	0.99896502	0	41	506	677573781	677573781	147
3.269300	-0.047363	-0.005127	0.037231	0	0.0605316	0.0066299	0.9838810	0	0.06324196	0.00242400	0.99811506	0	57	506	110293304	110293304	147
3.269329	-0.057312	0.005859	0.029968	0	0.0601730	0.0061798	0.9845295	0	0.06384420	0.00261235	0.99887371	0	73	506	-71698851	-71698851	147
3.269396	-0.069824	0.011902	0.035400	0	0.0597668	0.0058594	0.9836063	0	0.06424665	0.00261664	0.99973774	0	89	507	-1231420968	-1231420968	147
3.293299	-0.082397	0.010925	0.048584	0	0.0592842	0.0057373	0.9830494	0	0.06392741	0.00196838	0.99957108	0	105	507	1126120371	1126120371	147
3.293325	-0.080383	0.016541	0.051941	0	0.0585766	0.0057793	0.9840374	0	0.06252217	0.00153637	0.99912643	0	121	507	-710115809	-710115809	147
3.293369	-0.060608	0.021118	0.043823	0	0.0575027	0.0059204	0.9854050	0	0.06072783	0.00192714	0.99939656	0	137	506	609235349	609235349	147
3.317256	-0.047119	0.018555	0.039307	0	0.0563049	0.0060577	0.9854527	0	0.05963230	0.00244141	1.00010943	0	153	506	1424179404	1424179404	147
3.317286	-0.045349	0.021729	0.041321	0	0.0559139	0.0058880	0.9842205	0	0.05946279	0.00225306	1.00040126	0	169	506	-1668116372	-1668116372	147
3.317304	-0.041138	0.029968	0.042542	0	0.0564384	0.0054474	0.9833889	0	0.05982780	0.00174284	0.99992681	0	185	506	-1784381529	-1784381529	147
3.341236	-0.041321	0.031128	0.037537	0	0.0570583	0.0053749	0.9839878	0	0.06028700	0.00176668	0.99904037	0	201	506	-1233296376	-1233296376	147
3.341261	-0.051086	0.020508	0.024170	0	0.0576668	0.0059757	0.9854603	0	0.06056213	0.00229549	0.99847150	0	217	506	-510067791	-510067791	147
3.341275	-0.056030	0.009827	0.011841	0	0.0586262	0.0065403	0.9862213	0	0.06074262	0.00268745	0.99871588	0	233	506	-758378584	-758378584	147
3.365210	-0.043579	0.008606	0.007141	0	0.0596428	0.0063343	0.9852428	0	0.06110930	0.00269485	0.99925208	0	249	507	-1838304405	-1838304405	147
3.365287	-0.023193	0.006958	0.005310	0	0.0599461	0.0058155	0.9838600	0	0.06186700	0.00247049	0.99896193	0	9	507	-1813258222	-1813258222	147
3.365306	-0.025757	-0.000488	0.009399	0	0.0594501	0.0060062	0.9839268	0	0.06277728	0.00208974	0.99793386	0	25	507	2070066155	2070066155	147
3.389165	-0.057739	-0.005493	0.016541	0	0.0587406	0.0067158	0.9849129	0	0.06298542	0.00183702	0.99726915	0	41	506	-1020439859	-1020439859	147
3.389232	-0.075989	-0.000916	0.020935	0	0.0580826	0.0066280	0.9850368	0	0.06226563	0.00192833	0.99731135	0	57	506	1342661296	1342661296	147
3.389251	-0.053040	0.004395	0.032043	0	0.0576210	0.0055332	0.9842243	0	0.06131411	0.00203681	0.99766254	0	73	506	-1288251842	-1288251842	147
3.413094	-0.022339	0.000671	0.047241	0	0.0573139	0.0046844	0.9841633	0	0.06034923	0.00189471	0.99801135	0	89	506	-1260164976	-1260164976	147
3.413116	-0.023071	-0.004822	0.054871	0	0.0568943	0.0048676	0.9850731	0	0.05960894	0.00179172	0.99846745	0	105	506	1166771903	1166771903	147
3.413162	-0.045593	-0.009583	0.059265	0	0.0566502	0.0055180	0.9853115	0	0.05958462	0.00220823	0.99906611	0	121	506	219759871	219759871	147
3.437081	-0.054382	-0.011597	0.063660	0	0.0569077	0.0060921	0.9846516	0	0.05988288	0.00284910	0.99922156	0	137	507	-1922925765	-1922925765	147
3.437111	-0.041687	-0.002441	0.059326	0	0.0575123	0.0066204	0.9840679	0	0.06029940	0.00293922	0.99866629	0	153	507	-455596549	-455596549	147
3.437131	-0.033264	0.010437	0.045654	0	0.0584373	0.0070648	0.9838924	0	0.06117964	0.00264859	0.99799514	0	169	507	-66310127	-66310127	147
3.461064	-0.045715	0.015991	0.032776	0	0.0598087	0.0074921	0.9843330	0	0.06214404	0.00277328	0.99762273	0	185	507	-1256539002	-1256539002	147
3.461085	-0.065491	0.016479	0.028259	0	0.0609703	0.0076485	0.9854164	0	0.06282473	0.00315332	0.99736476	0	201	507	-343145678	-343145678	147
3.461097	-0.069580	0.014526	0.030212	0	0.0611191	0.0072651	0.9862404	0	0.06339765	0.00275707	0.99710393	0	217	506	-1598422788	-1598422788	147
3.485049	-0.055908	0.010315	0.031189	0	0.0606670	0.0067730	0.9860039	0	0.06372309	0.00177073	0.99692488	0	233	506	-850656307	-850656307	147
3.485075	-0.049072	0.005310	0.030212	0	0.0600948	0.0063725	0.9852676	0	0.06348586	0.00160217	0.99693727	0	249	506	-1607779873	-1607779873	147
3.485091	-0.058044	0.001099	0.030701	0	0.0589867	0.0060902	0.9849281	0	0.06260324	0.00224590	0.99745154	0	9	506	664935479	664935479	147
3.509059	-0.063721	0.005554	0.031738	0	0.0575180	0.0061111	0.9849510	0	0.06128907	0.00258470	0.99829078	0	25	506	-488534974	-488534974	147
3.509167	-0.060974	0.017456	0.031677	0	0.0567818	0.0061874	0.9847126	0	0.06011438	0.00236750	0.99847913	0	41	506	694611525	694611525	147
3.509182	-0.062317	0.024170	0.036438	0	0.0571651	0.0060368	0.9842567	0	0.05941296	0.00186181	0.99777746	0	57	507	1675147516	1675147516	147
3.532995	-0.069397	0.029053	0.050476	0	0.0579529	0.0060101	0.9842091	0	0.05914950	0.00139117	0.99720287	0	73	507	252869941	252869941	147
3.533023	-0.069763	0.035217	0.065430	0	0.0586624	0.0063457	0.9842567	0	0.05951595	0.00139761	0.99755764	0	89	507	-479639419	-479639419	147
3.533083	-0.063293	0.033203	0.065308	0	0.0594845	0.0064278	0.9837914	0	0.06050634	0.00183964	0.99842954	0	105	507	1265704554	1265704554	147
3.556950	-0.054688	0.033386	0.044800	0	0.0603180	0.0061340	0.9831657	0	0.06165195	0.00242138	0.99878407	0	121	506	1523177942	1523177942	147
3.556974	-0.035950	0.046692	0.027954	0	0.0606232	0.0061016	0.9829788	0	0.06268859	0.00320959	0.99837422	0	137	506	-518193545	-518193545	147
3.557016	-0.015869	0.055115	0.034546	0	0.0604591	0.0061264	0.9833565	0	0.06350350	0.00376439	0.99811864	0	153	506	-868099189	-868099189	147
3.580983	-0.017456	0.045288	0.048462	0	0.0601978	0.0059299	0.9839115	0	0.06374764	0.00334930	0.99871135	0	169	506	1268772552	1268772552	147
3.581003	-0.037048	0.018433	0.052490	0	0.0596046	0.0059586	0.9841309	0	0.06312037	0.00252795	0.99980354	0	185	506	133103253	133103253	147
3.581016	-0.051270	-0.014526	0.047241	0	0.0585384	0.0059147	0.9840069	0	0.06185246	0.00222921	1.00057530	0	201	506	-686581143	-686581143	147
3.604896	-0.050537	-0.032104	0.037720	0	0.0574284	0.0052624	0.9839897	0	0.06055808	0.00202417	1.00044131	0	217	506	453927674	453927674	147
3.604918	-0.049072	-0.022949	0.028870	0	0.0566273	0.0047054	0.9841900	0	0.05962491	0.00130415	0.99961686	0	233	507	2046411071	2046411071	147
3.604930	-0.060120	-0.001038	0.028625	0	0.0562458	0.0048962	0.9843330	0	0.05914593	0.00067639	0.99873853	0	249	507	2081459185	2081459185	147
3.628859	-0.070129	0.010376	0.040405	0	0.0563316	0.0052414	0.9844799	0	0.05914426	0.00088310	0.99819589	0	9	507	-1135981453	-1135981453	147
3.628917	-0.060120	0.011658	0.054810	0	0.0570030	0.0051289	0.9845963	0	0.05959797	0.00163031	0.99814320	0	25	506	1554046812	1554046812	147
3.628930	-0.038696	0.014832	0.061157	0	0.0581894	0.0048008	0.9843426	0	0.06042480	0.00225854	0.99859023	0	41	506	577665610	577665610	147
3.652863	-0.029297	0.017151	0.057251	0	0.0594006	0.0049763	0.9842110	0	0.06132078	0.00257421	0.99924755	0	57	506	253850835	253850835	147
3.652940	-0.034668	0.013916	0.046082	0	0.0601559	0.0058270	0.9848423	0	0.06207037	0.00277281	0.99956465	0	73	506	968332197	968332197	147
3.652952	-0.044739	0.010132	0.029907	0	0.0601425	0.0066338	0.9855595	0	0.06293559	0.00284529	0.99935699	0	89	506	336436798	336436798	147
3.676813	-0.052368	0.008118	0.016907	0	0.0594311	0.0067177	0.9854031	0	0.06388545	0.00254726	0.99881268	0	105	506	1524731945	1524731945	147
3.676833	-0.051086	0.002991	0.018066	0	0.0585403	0.0062618	0.9846210	0	0.06438780	0.00199628	0.99818754	0	121	507	-1801873408	-1801873408	147
3.676880	-0.045593	-0.000305	0.029236	0	0.0575867	0.0058861	0.9841766	0	0.06433392	0.00142312	0.99788475	0	137	507	1256523111	1256523111	147
3.700799	-0.041382	0.011719	0.035767	0	0.0565033	0.0057316	0.9844704	0	0.06386662	0.00108171	0.99791908	0	153	507	1185584897	1185584897	147
3.700827	-0.039856	0.032043	0.034607	0	0.0558033	0.0055218	0.9849586	0	0.06281495	0.00124311	0.99772167	0	169	507	-1785076973	-1785076973	147
3.700840	-0.043945	0.035461	0.036133	0	0.0560265	0.0051842	0.9853458	0	0.06127310	0.00140047	0.99703336	0	185	506	-839250827	-839250827	147
3.724755	-0.052795	0.019348	0.042908	0	0.0569706	0.0051746	0.9858627	0	0.06011581	0.00111890	0.99649763	0	201	506	-1794913344	-1794913344	147
3.724779	-0.068604	0.011475	0.047852	0	0.0578613	0.0057926	0.9860954	0	0.06003475	0.00105023	0.99704099	0	217	506	1307356350	1307356350	147
3.724791	-0.086243	0.021179	0.050659	0	0.0584164	0.0065517	0.9855194	0	0.06074286	0.00175500	0.99853778	0	233	506	197142571	197142571	147
3.748711	-0.087769	0.027466	0.055542	0	0.0590305	0.0070267	0.9845238	0	0.06168675	0.00277328	0.99954844	0	249	507	248715212	248715212	147
3.748753	-0.072815	0.019165	0.058960	0	0.0595493	0.0072002	0.9838886	0	0.06234860	0.00320697	0.99912572	0	9	507	-1758862168	-1758862168	147
3.748766	-0.064880	0.002441	0.051697	0	0.0597591	0.0070000	0.9838753	0	0.06258678	0.00278878	0.99817944	0	25	507	-1065079396	-1065079396	147
3.772732	-0.076233	-0.005737	0.033020	0	0.0599747	0.0066833	0.9840145	0	0.06279516	0.00225329	0.99784732	0	41	507	227303615	227303615	147
3.772801	-0.089600	0.006470	0.014404	0	0.0600014	0.0065994	0.9840736	0	0.06281590	0.00239992	0.99799681	0	57	507	-1970394761	-1970394761	147
3.772817	-0.087708	0.022705	0.008789	0	0.0594082	0.0066299	0.9843407	0	0.06242228	0.00285411	0.99824166	0	73	507	-1936517534	-1936517534	147
3.796684	-0.077087	0.026428	0.014465	0	0.0584278	0.0066586	0.9848862	0	0.06204510	0.00260592	0.99870229	0	89	506	1006565476	1006565476	147
3.796706	-0.071045	0.024048	0.019104	0	0.0575485	0.0064354	0.9854584	0	0.06147218	0.00175285	0.99936748	0	105	506	-776600162	-776600162	147
3.796756	-0.069214	0.026428	0.021423	0	0.0569801	0.0057793	0.9854660	0	0.06029415	0.00116372	0.99966764	0	121	506	-1560662330	-1560662330	147
3.820689	-0.062073	0.030029	0.030212	0	0.0568924	0.0052299	0.9846745	0	0.05926585	0.00112438	0.99945188	0	137	506	1062807128	1062807128	147
3.820711	-0.044434	0.021667	0.047913	0	0.0572262	0.0051346	0.9838943	0	0.05918288	0.00142813	0.99924159	0	153	506	-2002435914	-2002435914	147
3.820809	-0.028870	0.007446	0.058716	0	0.0577126	0.0054054	0.9839458	0	0.05989671	0.00181842	0.99888206	0	169	506	829277238	829277238	147
3.844626	-0.027649	0.005188	0.052612	0	0.0584965	0.0060196	0.9847031	0	0.06096339	0.00215364	0.99814630	0	185	507	866944477	866944477	147
3.844650	-0.032715	0.014709	0.046875	0	0.0595093	0.0066738	0.9854164	0	0.06216788	0.00237417	0.99763131	0	201	506	-83882474	-83882474	147
3.844663	-0.037903	0.020020	0.047607	0	0.0599957	0.0069752	0.9856548	0	0.06340075	0.00257564	0.99758196	0	217	507	1744610613	1744610613	147
3.868603	-0.046204	0.013306	0.043396	0	0.0597534	0.0068359	0.9856339	0	0.06432629	0.00287461	0.99751496	0	233	507	-1045445003	-1045445003	147
3.868647	-0.055847	0.010132	0.038818	0	0.0595951	0.0065575	0.9855518	0	0.06439018	0.00314331	0.99724293	0	249	506	-1858038787	-1858038787	147
3.868659	-0.064270	0.016418	0.038330	0	0.0596466	0.0064983	0.9852257	0	0.06349397	0.00327206	0.99711490	0	9	506	145937435	145937435	147
3.892605	-0.069885	0.012817	0.039429	0	0.0590057	0.0065498	0.9846382	0	0.06221604	0.00303888	0.99726558	0	25	506	-487538158	-487538158	147
3.892678	-0.071411	0.001526	0.045105	0	0.0577278	0.0065517	0.9843102	0	0.06106830	0.00229239	0.99762321	0	41	506	900590063	900590063	147
3.892693	-0.072693	0.005615	0.046631	0	0.0569382	0.0063324	0.9847107	0	0.06019735	0.00168371	0.99817634	0	57	506	-277345179	-277345179	147
3.916521	-0.071472	0.019287	0.037231	0	0.0570488	0.0057583	0.9854851	0	0.05960083	0.00163126	0.99880552	0	73	506	-1784964466	-1784964466	147
3.916576	-0.061401	0.017944	0.032410	0	0.0574265	0.0052872	0.9858608	0	0.05926776	0.00154662	0.99953699	0	89	506	1510476961	1510476961	147
3.916589	-0.048035	0.004211	0.039124	0	0.0574875	0.0052948	0.9857368	0	0.05943298	0.00111389	1.00022030	0	105	506	-1647323025	-1647323025	147
3.940553	-0.039978	-0.001831	0.043762	0	0.0575466	0.0056400	0.9855270	0	0.06014085	0.00067687	1.00048041	0	121	506	-1552160141	-1552160141	147
3.940575	-0.040710	0.000488	0.041138	0	0.0580311	0.0060482	0.9852428	0	0.06079340	0.00062633	1.00051427	0	137	507	591626856	591626856	147
3.940630	-0.049500	0.001648	0.033936	0	0.0587635	0.0062122	0.9846420	0	0.06115294	0.00117302	1.00069761	0	153	507	-1273928526	-1273928526	147
4.069337	-0.059448	0.002258	0.026367	0	0.0594425	0.0061893	0.9839916	0	0.06168556	0.00213575	1.00089478	0	169	506	-1906529783	-1906529783	147
4.069364	-0.062561	0.003235	0.026062	0	0.0597382	0.0062885	0.9838734	0	0.06227994	0.00271344	1.00071573	0	185	506	2069950187	2069950187	147
4.069381	-0.061829	0.004456	0.028198	0	0.0594254	0.0062160	0.9843311	0	0.06246567	0.00226808	1.00013423	0	201	506	-202298777	-202298777	147
4.069429	-0.063843	0.015259	0.030884	0	0.0585060	0.0058098	0.9847183	0	0.06231284	0.00158715	0.99950480	0	217	506	1733488592	1733488592	147
4.069444	-0.064819	0.029663	0.040833	0	0.0572605	0.0057068	0.9846077	0	0.06192923	0.00153565	0.99917603	0	233	506	-1126278074	-1126278074	147
4.069461	-0.060181	0.026978	0.054749	0	0.0564842	0.0060444	0.9841137	0	0.06126142	0.00167823	0.99928093	0	249	506	-502711261	-502711261	147
4.069511	-0.059082	0.014038	0.068848	0	0.0564098	0.0065289	0.9838505	0	0.06048465	0.00163484	0.99934888	0	9	506	543315538	543315538	147
4.069527	-0.067627	0.006897	0.075256	0	0.0564327	0.0070057	0.9845848	0	0.06014276	0.00156832	0.99907923	0	25	507	2029199307	2029199307	147
4.069544	-0.070129	0.009277	0.070618	0	0.0562859	0.0069008	0.9856415	0	0.06038928	0.00176668	0.99899387	0	41	507	-1009988893	-1009988893	147
4.069560	-0.066101	0.020630	0.063965	0	0.0562687	0.0060654	0.9855423	0	0.06079435	0.00230646	0.99908376	0	57	507	-976426956	-976426956	147
4.069606	-0.071045	0.025391	0.053833	0	0.0569534	0.0052643	0.9844494	0	0.06115532	0.00267506	0.99872780	0	73	506	566513233	566513233	147
4.069620	-0.074463	0.018982	0.040222	0	0.0581932	0.0051613	0.9839268	0	0.06146979	0.00283694	0.99822569	0	89	506	1238349370	1238349370	147
4.069637	-0.066162	0.016907	0.033264	0	0.0589924	0.0057030	0.9846840	0	0.06174040	0.00334477	0.99843454	0	105	506	-186204133	-186204133	147
4.069652	-0.056580	0.017700	0.032532	0	0.0591316	0.0061245	0.9853439	0	0.06199002	0.00365305	0.99908519	0	121	506	-1381801630	-1381801630	147
4.069777	-0.056885	0.013000	0.031738	0	0.0590839	0.0058842	0.9846935	0	0.06238127	0.00311613	0.99913406	0	137	506	-1886955249	-1886955249	147
4.069793	-0.067200	0.010986	0.030701	0	0.0589314	0.0054550	0.9839401	0	0.06284261	0.00240707	0.99871945	0	153	506	1081396575	1081396575	147
4.093296	-0.073120	0.014465	0.032593	0	0.0584908	0.0054493	0.9842701	0	0.06283236	0.00193000	0.99881172	0	169	506	1613735306	1613735306	147
4.093351	-0.066895	0.010437	0.035889	0	0.0575962	0.0057583	0.9850159	0	0.06228209	0.00140142	0.99924231	0	185	507	-890215407	-890215407	147
4.093364	-0.060425	-0.000244	0.035522	0	0.0565529	0.0059776	0.9852943	0	0.06149316	0.00090814	0.99909973	0	201	507	1363626749	1363626749	147
4.117310	-0.062744	-0.003052	0.033569	0	0.0560856	0.0058994	0.9850559	0	0.06060100	0.00071812	0.99837875	0	217	507	1932622869	1932622869	147
4.117336	-0.063599	0.008972	0.030334	0	0.0563755	0.0056915	0.9847851	0	0.05990314	0.00081110	0.99794602	0	233	507	-1235364292	-1235364292	147
4.117383	-0.058411	0.024902	0.026855	0	0.0571823	0.0057297	0.9847584	0	0.05976415	0.00103426	0.99815989	0	249	506	290019755	290019755	147
4.141311	-0.062256	0.025024	0.032349	0	0.0582676	0.0060711	0.9846783	0	0.06023169	0.00124764	0.99854970	0	9	506	1539588241	1539588241	147
4.141336	-0.072144	0.011902	0.040405	0	0.0592709	0.0064983	0.9841557	0	0.06103468	0.00145388	0.99876165	0	25	506	-552310706	-552310706	147
4.141351	-0.068359	0.006531	0.037415	0	0.0599785	0.0066929	0.9835587	0	0.06197286	0.00197148	0.99869061	0	41	506	681845488	681845488	147
4.165258	-0.055420	0.014343	0.029297	0	0.0603199	0.0063591	0.9837399	0	0.06283736	0.00251889	0.99826217	0	57	506	-1632506635	-1632506635	147
4.165291	-0.054138	0.020020	0.026917	0	0.0601826	0.0056896	0.9843311	0	0.06319785	0.00247049	0.99788713	0	73	506	-1971332435	-1971332435	147
4.165310	-0.066406	0.014648	0.031738	0	0.0596542	0.0052242	0.9840279	0	0.06299400	0.00212193	0.99816537	0	89	507	1418412841	1418412841	147
4.189206	-0.073303	0.001160	0.040527	0	0.0589600	0.0050850	0.9829464	0	0.06248379	0.00219154	0.99883842	0	105	507	-187040214	-187040214	147
4.189230	-0.060242	-0.015869	0.050415	0	0.0581207	0.0051041	0.9822464	0	0.06178093	0.00273848	0.99914646	0	121	507	-1606322479	-1606322479	147
4.189243	-0.037292	-0.020996	0.054932	0	0.0572014	0.0053825	0.9823208	0	0.06105137	0.00287604	0.99914503	0	137	507	-1273715627	-1273715627	147
4.213176	-0.029297	-0.008362	0.050537	0	0.0565052	0.0058670	0.9830875	0	0.06032777	0.00235105	0.99949765	0	153	505	-433492945	-433492945	147
4.213232	-0.041870	0.005554	0.043396	0	0.0564518	0.0060368	0.9841652	0	0.05955219	0.00208592	1.00011873	0	169	506	-179953453	-179953453	147
4.213244	-0.056091	0.014221	0.040833	0	0.0573463	0.0058517	0.9848957	0	0.05909276	0.00229812	1.00013995	0	185	506	1237745755	1237745755	147
4.237217	-0.057861	0.020020	0.048889	0	0.0586376	0.0058746	0.9848461	0	0.05943894	0.00232458	0.99936819	0	201	506	-658091701	-658091701	147
4.237253	-0.047485	0.017395	0.059021	0	0.0593872	0.0062237	0.9840755	0	0.06048250	0.00200891	0.99865413	0	217	506	-1911170573	-1911170573	147
4.237310	-0.043091	0.007996	0.054260	0	0.0594406	0.0066605	0.9833317	0	0.06165195	0.00188136	0.99857354	0	233	506	-1963554145	-1963554145	147
4.261210	-0.058289	0.005310	0.033997	0	0.0594196	0.0068226	0.9831009	0	0.06249261	0.00222254	0.99873996	0	249	507	1718057584	1718057584	147
4.261231	-0.069214	0.008423	0.011292	0	0.0595474	0.0064507	0.9830952	0	0.06300187	0.00258040	0.99860668	0	9	507	347335025	347335025	147
4.261315	-0.055115	0.004517	0.004333	0	0.0594177	0.0060024	0.9834709	0	0.06339002	0.00222731	0.99815893	0	25	507	-813241108	-813241108	147
4.285145	-0.040405	0.000732	0.016968	0	0.0590439	0.0060329	0.9843464	0	0.06362748	0.00121093	0.99780631	0	41	507	-542939698	-542939698	147
4.285168	-0.047729	0.009644	0.031799	0	0.0586033	0.0062599	0.9850388	0	0.06354475	0.00052190	0.99796152	0	57	506	739081022	739081022	147
4.285181	-0.058105	0.020935	0.042847	0	0.0579891	0.0063591	0.9850159	0	0.06285620	0.00068736	0.99855971	0	73	506	-2127395889	-2127395889	147
4.309093	-0.062988	0.024170	0.054260	0	0.0573425	0.0064907	0.9844074	0	0.06164455	0.00125599	0.99905586	0	89	506	-629186762	-629186762	147
4.309117	-0.074585	0.024353	0.059265	0	0.0570087	0.0067139	0.9839001	0	0.06067228	0.00154018	0.99902320	0	105	506	-1594013472	-1594013472	147
4.309130	-0.083984	0.022217	0.058960	0	0.0571613	0.0068607	0.9841900	0	0.06042910	0.00147557	0.99866843	0	121	506	763696652	763696652	147
4.333098	-0.084351	0.014648	0.061218	0	0.0575352	0.0068569	0.9849834	0	0.06070065	0.00157619	0.99830246	0	137	506	478689603	478689603	147
4.333184	-0.082825	0.001709	0.056091	0	0.0578651	0.0069027	0.9851341	0	0.06103110	0.00194287	0.99787068	0	153	506	-903059602	-903059602	147
4.333201	-0.076538	-0.006348	0.038513	0	0.0585003	0.0069675	0.9846191	0	0.06126595	0.00227594	0.99773002	0	169	507	-825467020	-825467020	147
4.357072	-0.063110	0.004272	0.027161	0	0.0592690	0.0068932	0.9844246	0	0.06160140	0.00241375	0.99843574	0	185	507	-1010122729	-1010122729	147
4.357135	-0.050171	0.026123	0.033081	0	0.0595646	0.0067635	0.9843769	0	0.06205153	0.00231385	0.99969864	0	201	506	-1800869172	-1800869172	147
4.357147	-0.047729	0.040039	0.044373	0	0.0596485	0.0063477	0.9841080	0	0.06225157	0.00219703	1.00040150	0	217	506	-2115742280	-2115742280	147
4.381044	-0.055420	0.034546	0.047913	0	0.0594978	0.0055141	0.9839134	0	0.06208992	0.00229812	0.99996328	0	233	506	-497579572	-497579572	147
4.381075	-0.064453	0.017578	0.044678	0	0.0585861	0.0048199	0.9837170	0	0.06184578	0.00237489	0.99924541	0	249	506	-300146519	-300146519	147
4.381128	-0.067993	0.007324	0.039551	0	0.0574169	0.0047703	0.9836502	0	0.06129360	0.00212789	0.99892616	0	9	506	-1531503967	-1531503967	147
4.405030	-0.062988	0.003906	0.034363	0	0.0568409	0.0052147	0.9840298	0	0.06026340	0.00166726	0.99872446	0	25	506	-201903737	-201903737	147
4.405076	-0.052856	0.003662	0.034973	0	0.0568409	0.0057602	0.9844971	0	0.05954218	0.00126529	0.99856234	0	41	506	-1007443778	-1007443778	147
4.405153	-0.043213	0.007324	0.043579	0	0.0569038	0.0062523	0.9845791	0	0.05963922	0.00104713	0.99870467	0	57	506	303076704	303076704	147
4.428992	-0.041077	0.011353	0.041443	0	0.0567245	0.0065498	0.9844933	0	0.05998158	0.00103331	0.99919176	0	73	507	-1195487725	-1195487725	147
4.429017	-0.049561	0.017273	0.025452	0	0.0567608	0.0063801	0.9848785	0	0.06002355	0.00123644	0.99976397	0	89	507	2080698599	2080698599	147
4.429029	-0.055725	0.023987	0.021423	0	0.0578747	0.0058537	0.9854050	0	0.06007648	0.00138474	0.99992299	0	105	506	-2010123003	-2010123003	147
4.452973	-0.047607	0.021118	0.029419	0	0.0595913	0.0058098	0.9850082	0	0.06064963	0.00109982	0.99921179	0	121	507	72005610	72005610	147
4.453001	-0.040710	0.007751	0.028259	0	0.0605316	0.0065155	0.9838371	0	0.06156301	0.00075269	0.99827504	0	137	506	-1289245521	-1289245521	147
4.453014	-0.053772	-0.000854	0.018250	0	0.0605812	0.0070171	0.9829903	0	0.06214762	0.00125408	0.99820065	0	153	506	1612080886	1612080886	147
4.476944	-0.067444	0.006226	0.015198	0	0.0601635	0.0069466	0.9831524	0	0.06232548	0.00253129	0.99876475	0	169	506	-436150985	-436150985	147
4.476997	-0.058960	0.020020	0.021179	0	0.0592766	0.0067368	0.9839706	0	0.06262779	0.00329685	0.99924684	0	185	506	-1788320722	-1788320722	147
4.477010	-0.047058	0.025574	0.030151	0	0.0584774	0.0064640	0.9846210	0	0.06282330	0.00303316	0.99958873	0	201	506	-1798067630	-1798067630	147
4.500888	-0.049622	0.022339	0.040771	0	0.0581818	0.0061665	0.9849434	0	0.06224108	0.00261664	0.99982405	0	217	506	432921740	432921740	147
4.500944	-0.054504	0.022827	0.047058	0	0.0578213	0.0059795	0.9849720	0	0.06117487	0.00246119	0.99968863	0	233	506	1798184936	1798184936	147
4.500957	-0.059143	0.032837	0.052795	0	0.0572510	0.0057850	0.9845238	0	0.06027865	0.00239325	0.99930811	0	249	507	-1675861075	-1675861075	147
4.524904	-0.069153	0.040771	0.063904	0	0.0570374	0.0054646	0.9839687	0	0.05965829	0.00243711	0.99925423	0	9	507	331788880	331788880	147
4.524928	-0.071045	0.031982	0.064880	0	0.0575447	0.0053253	0.9839706	0	0.05942202	0.00220442	0.99943781	0	25	507	129042825	129042825	147
4.524975	-0.055237	0.018677	0.046631	0	0.0586090	0.0056915	0.9845467	0	0.06000113	0.00164318	0.99942827	0	41	506	-996288047	-996288047	147
4.548854	-0.037903	0.024048	0.025757	0	0.0595589	0.0062428	0.9851608	0	0.06140304	0.00141883	0.99942970	0	57	506	-1430577729	-1430577729	147
4.548875	-0.035767	0.036255	0.016663	0	0.0599842	0.0065804	0.9854546	0	0.06269336	0.00151038	0.99968266	0	73	506	-215369551	-215369551	147
4.548888	-0.044495	0.030762	0.013977	0	0.0600204	0.0067940	0.9852753	0	0.06310749	0.00154281	0.99976134	0	89	506	-867885202	-867885202	147
4.572836	-0.053772	0.011536	0.006226	0	0.0597553	0.0070343	0.9844666	0	0.06308174	0.00175095	0.99903941	0	105	506	1370352052	1370352052	147
4.572855	-0.060608	0.000549	-0.004639	0	0.0593777	0.0070953	0.9837570	0	0.06318188	0.00234151	0.99776435	0	121	506	1456797439	1456797439	147
4.572867	-0.062195	0.005981	-0.003967	0	0.0590935	0.0065384	0.9840164	0	0.06307602	0.00298929	0.99709606	0	137	506	-780585461	-780585461	147
4.596837	-0.059021	0.008423	0.009949	0	0.0587959	0.0055695	0.9847126	0	0.06235194	0.00346637	0.99746871	0	153	507	-1571552649	-1571552649	147
4.596859	-0.053772	-0.005371	0.024963	0	0.0582733	0.0050354	0.9851742	0	0.06140709	0.00371838	0.99809813	0	169	507	1890381179	1890381179	147
4.596871	-0.043945	-0.018250	0.038513	0	0.0574570	0.0051899	0.9855270	0	0.06080127	0.00342250	0.99839711	0	185	507	1469432819	1469432819	147
4.620744	-0.035706	-0.017090	0.051697	0	0.0568829	0.0055676	0.9858341	0	0.06051779	0.00250864	0.99835086	0	201	506	23816809	23816809	147
4.620810	-0.043335	-0.008301	0.061218	0	0.0573769	0.0057240	0.9858532	0	0.06047797	0.00170875	0.99795103	0	217	506	-1524862097	-1524862097	147
4.620823	-0.065918	-0.002686	0.063904	0	0.0586414	0.0058441	0.9854450	0	0.06080985	0.00182962	0.99727440	0	233	506	-981546971	-981546971	147
4.644732	-0.083496	-0.001587	0.056580	0	0.0594635	0.0065479	0.9848385	0	0.06138563	0.00250196	0.99667096	0	249	506	1945748514	1945748514	147
4.644761	-0.082275	0.002869	0.044128	0	0.0595589	0.0074863	0.9843769	0	0.06202793	0.00280285	0.99657059	0	9	506	-1457664819	-1457664819	147
4.644825	-0.072327	0.008057	0.033691	0	0.0596523	0.0075569	0.9843616	0	0.06277347	0.00265312	0.99701834	0	25	506	381869054	381869054	147
4.668686	-0.069580	0.007507	0.027039	0	0.0597744	0.0069962	0.9849186	0	0.06348062	0.00233340	0.99755263	0	41	506	-75179381	-75179381	147
4.668711	-0.068665	0.011108	0.027344	0	0.0592556	0.0067749	0.9854584	0	0.06374478	0.00240827	0.99794483	0	57	507	361325092	361325092	147
4.668757	-0.060181	0.018433	0.035156	0	0.0581493	0.0068169	0.9851608	0	0.06316304	0.00308514	0.99829268	0	73	507	-1357850974	-1357850974	147
4.692861	-0.056580	0.012573	0.044495	0	0.0571842	0.0065689	0.9843330	0	0.06184721	0.00314140	0.99846220	0	89	507	-1920442056	-1920442056	147
4.692883	-0.065918	0.001526	0.053223	0	0.0566463	0.0062237	0.9838772	0	0.06060410	0.00220513	0.99825954	0	105	506	240559933	240559933	147
4.692911	-0.067749	0.004395	0.062622	0	0.0564175	0.0062981	0.9839611	0	0.05978060	0.00150084	0.99781370	0	121	506	1502511414	1502511414	147
4.716684	-0.052612	0.016602	0.070862	0	0.0566540	0.0063305	0.9843636	0	0.05912662	0.00146866	0.99773812	0	137	506	584395717	584395717	147
4.716711	-0.048645	0.028809	0.072205	0	0.0572834	0.0059757	0.9849758	0	0.05899239	0.00152993	0.99823093	0	153	506	1734105437	1734105437	147
4.716730	-0.064209	0.036255	0.064636	0	0.0579300	0.0059338	0.9854565	0	0.05977917	0.00136900	0.99852276	0	169	506	138490792	138490792	147
4.740613	-0.072510	0.034363	0.053162	0	0.0587082	0.0061970	0.9851894	0	0.06096911	0.00119781	0.99834418	0	185	506	1164950463	1164950463	147
4.740675	-0.065125	0.025146	0.044922	0	0.0596676	0.0060883	0.9843063	0	0.06179380	0.00134110	0.99848104	0	201	506	1521018183	1521018183	147
4.740688	-0.058044	0.013794	0.040405	0	0.0600529	0.0058937	0.9836807	0	0.06208324	0.00190353	0.99912548	0	217	507	-1093308627	-1093308627	147
4.764608	-0.065247	0.003357	0.032654	0	0.0595169	0.0059891	0.9834137	0	0.06234384	0.00243926	0.99942040	0	233	507	2060174166	2060174166	147
4.764662	-0.076050	-0.002258	0.024719	0	0.0589943	0.0058155	0.9832897	0	0.06288862	0.00255275	0.99933553	0	249	507	-634587028	-634587028	147
4.764675	-0.067383	-0.000977	0.022461	0	0.0589638	0.0054550	0.9835587	0	0.06322503	0.00259614	0.99959230	0	9	507	504646116	504646116	147
4.788550	-0.045288	0.005798	0.021606	0	0.0587254	0.0057659	0.9839020	0	0.06290269	0.00289345	0.99998808	0	25	506	947404086	947404086	147
4.788578	-0.034607	0.013123	0.025879	0	0.0580540	0.0064545	0.9840279	0	0.06207681	0.00314927	1.00009251	0	41	506	-1968753575	-1968753575	147
4.788640	-0.043640	0.015198	0.034790	0	0.0573483	0.0065899	0.9842300	0	0.06097627	0.00295877	1.00007915	0	57	506	-343569683	-343569683	147
4.812473	-0.064758	0.011047	0.039795	0	0.0568790	0.0062618	0.9843903	0	0.05985188	0.00247693	0.99994969	0	73	506	623975856	623975856	147
4.812497	-0.078857	0.005798	0.043030	0	0.0567398	0.0061226	0.9842892	0	0.05919003	0.00198913	0.99935079	0	89	506	-571401077	-571401077	147
4.812510	-0.073303	0.000183	0.045227	0	0.0568237	0.0063572	0.9841080	0	0.05922246	0.00143719	0.99845839	0	105	506	1345744170	1345744170	147
4.965366	-0.058838	-0.008606	0.041626	0	0.0569992	0.0066452	0.9840736	0	0.05961919	0.00109649	0.99804831	0	121	506	-961548566	-961548566	147
4.965387	-0.055908	-0.011841	0.032471	0	0.0572567	0.0065670	0.9842892	0	0.05994368	0.00137520	0.99830842	0	137	507	-671928457	-671928457	147
4.965399	-0.064270	-0.000854	0.028259	0	0.0577564	0.0062160	0.9847202	0	0.06049371	0.00204086	0.99858713	0	153	507	1213941674	1213941674	147
4.965442	-0.064575	0.015137	0.031921	0	0.0586300	0.0061569	0.9850159	0	0.06173015	0.00251245	0.99846101	0	169	506	207617695	207617695	147
4.965454	-0.059753	0.025146	0.030212	0	0.0595341	0.0064697	0.9848995	0	0.06300831	0.00250602	0.99824786	0	185	506	1562235	1562235	147
4.965465	-0.058411	0.026184	0.023560	0	0.0598507	0.0066109	0.9845371	0	0.06358290	0.00216079	0.99815536	0	201	506	-1926014507	-1926014507	147
4.965477	-0.052917	0.020386	0.022217	0	0.0593758	0.0063534	0.9843102	0	0.06344771	0.00168037	0.99797988	0	217	506	819973688	819973688	147
4.965510	-0.047058	0.016846	0.024353	0	0.0584679	0.0059700	0.9847565	0	0.06296897	0.00117064	0.99787307	0	233	506	-657484270	-657484270	147
4.965522	-0.048645	0.019470	0.022583	0	0.0577717	0.0055485	0.9855461	0	0.06260061	0.00097728	0.99818563	0	249	506	683465475	683465475	147
4.965534	-0.054382	0.022339	0.019104	0	0.0574760	0.0051994	0.9857712	0	0.06210136	0.00143790	0.99876142	0	9	506	1140619383	1140619383	147
4.965545	-0.057617	0.021667	0.028076	0	0.0571041	0.0052032	0.9854412	0	0.06123638	0.00222039	0.99908328	0	25	506	453774950	453774950	147
4.965577	-0.053345	0.017700	0.052795	0	0.0569096	0.0055790	0.9849854	0	0.06060672	0.00268865	0.99902844	0	41	507	898062412	898062412	147
4.965588	-0.048279	0.017517	0.070923	0	0.0575428	0.0062504	0.9846249	0	0.06048799	0.00280619	0.99872804	0	57	507	-447211247	-447211247	147
4.965600	-0.048523	0.021851	0.064514	0	0.0583553	0.0067978	0.9842510	0	0.06079984	0.00302029	0.99813986	0	73	507	2048419145	2048419145	147
4.965611	-0.047241	0.020691	0.046570	0	0.0588284	0.0068302	0.9836407	0	0.06155276	0.00321770	0.99746990	0	89	506	-1733214387	-1733214387	147
4.965643	-0.039917	0.018005	0.031677	0	0.0594139	0.0066643	0.9832096	0	0.06221342	0.00310349	0.99717855	0	105	506	-340347653	-340347653	147
4.965655	-0.037598	0.022095	0.023987	0	0.0600166	0.0064335	0.9833775	0	0.06218576	0.00290942	0.99748969	0	121	506	1381364258	1381364258	147
4.965666	-0.047668	0.025391	0.031189	0	0.0603333	0.0061798	0.9838505	0	0.06180835	0.00270629	0.99823642	0	137	506	-793202582	-793202582	147
4.965702	-0.058228	0.018677	0.040283	0	0.0602779	0.0062885	0.9843102	0	0.06169581	0.00239825	0.99873853	0	153	506	1486624619	1486624619	147
4.989297	-0.061157	0.001831	0.035400	0	0.0596714	0.0067444	0.9845238	0	0.06165433	0.00209236	0.99837899	0	169	506	-1061533000	-1061533000	147
4.989324	-0.057861	-0.016174	0.029358	0	0.0585327	0.0070076	0.9842548	0	0.06116748	0.00179172	0.99766135	0	185	507	-1070665292	-1070665292	147
4.989341	-0.052673	-0.025757	0.030884	0	0.0570564	0.0066090	0.9839077	0	0.06042695	0.00141096	0.99759769	0	201	507	237593278	237593278	147
5.013299	-0.056885	-0.027466	0.030273	0	0.0558128	0.0060196	0.9840965	0	0.05997944	0.00104618	0.99831080	0	217	507	-1625509198	-1625509198	147
5.013335	-0.073486	-0.016235	0.020447	0	0.0556221	0.0060997	0.9846249	0	0.05978656	0.00064373	0.99909616	0	233	506	200983610	200983610	147
5.013353	-0.084229	0.007751	0.010559	0	0.0564232	0.0064106	0.9850464	0	0.05966926	0.00035453	0.99932051	0	249	506	-99830808	-99830808	147
5.037226	-0.075867	0.021118	0.013794	0	0.0573978	0.0061054	0.9852867	0	0.05986118	0.00095034	0.99911404	0	9	506	-1685118622	-1685118622	147
5.037252	-0.063354	0.012878	0.028992	0	0.0582600	0.0057030	0.9853745	0	0.06058216	0.00234008	0.99910474	0	25	506	-1830762299	-1830762299	147
5.037269	-0.061279	-0.000610	0.042419	0	0.0592403	0.0060196	0.9852962	0	0.06181431	0.00322628	0.99915862	0	41	506	-309506128	-309506128	147
5.061208	-0.065552	-0.004089	0.039917	0	0.0601349	0.0066910	0.9847813	0	0.06302381	0.00319910	0.99860358	0	57	506	-1227600452	-1227600452	147
5.061265	-0.068542	0.001892	0.028748	0	0.0605602	0.0071487	0.9838982	0	0.06348538	0.00309324	0.99784470	0	73	506	41361704	41361704	147
5.061278	-0.067139	0.008545	0.020691	0	0.0604763	0.0073986	0.9834595	0	0.06315470	0.00325298	0.99764252	0	89	506	2087211577	2087211577	147
5.085196	-0.065002	0.007019	0.013000	0	0.0595188	0.0072613	0.9835587	0	0.06264138	0.00327945	0.99785304	0	105	507	1808202581	1808202581	147
5.085228	-0.065613	-0.002136	0.012756	0	0.0577126	0.0067196	0.9836826	0	0.06239676	0.00304413	0.99819326	0	121	507	-1708050151	-1708050151	147
5.085291	-0.068665	-0.008606	0.024963	0	0.0564194	0.0063400	0.9840107	0	0.06199598	0.00282264	0.99858093	0	137	506	-182199380	-182199380	147
5.109179	-0.073608	-0.010925	0.034973	0	0.0562172	0.0061798	0.9845028	0	0.06093907	0.00270033	0.99904656	0	153	507	492067944	492067944	147
5.109222	-0.075562	-0.014221	0.041321	0	0.0565052	0.0058346	0.9845791	0	0.05992031	0.00269890	0.99954653	0	169	506	-907715980	-907715980	147
5.109339	-0.072937	-0.011902	0.055237	0	0.0571308	0.0055141	0.9844341	0	0.05972958	0.00285482	0.99943304	0	185	506	1660896375	1660896375	147
5.133096	-0.071411	0.001465	0.068481	0	0.0576153	0.0056744	0.9846706	0	0.06005430	0.00273347	0.99860501	0	201	506	898706577	898706577	147
5.133117	-0.072021	0.011841	0.065918	0	0.0576954	0.0062332	0.9850578	0	0.06053519	0.00231338	0.99820971	0	217	506	-708278330	-708278330	147
5.133129	-0.069336	0.010071	0.050476	0	0.0582886	0.0067425	0.9849377	0	0.06107998	0.00231123	0.99865770	0	233	506	-20546446	-20546446	147
5.157071	-0.063354	0.009949	0.034973	0	0.0594673	0.0070190	0.9844532	0	0.06144142	0.00263453	0.99896908	0	249	506	-2001568781	-2001568781	147
5.157095	-0.063293	0.012451	0.024597	0	0.0599442	0.0071964	0.9843884	0	0.06155419	0.00254226	0.99867964	0	9	507	-305506592	-305506592	147
5.157108	-0.066956	0.002319	0.020813	0	0.0594368	0.0072498	0.9848728	0	0.06156993	0.00206137	0.99826288	0	25	507	823422635	823422635	147
5.181054	-0.059326	-0.010071	0.026367	0	0.0588779	0.0070038	0.9851379	0	0.06184220	0.00159931	0.99815536	0	41	507	-1184362892	-1184362892	147
5.181139	-0.043945	-0.008606	0.035767	0	0.0586052	0.0065117	0.9849873	0	0.06234026	0.00126266	0.99834228	0	57	507	1993218783	1993218783	147
5.181158	-0.037720	-0.000854	0.042114	0	0.0581760	0.0060482	0.9850712	0	0.06238365	0.00121379	0.99852467	0	73	506	-2093774398	-2093774398	147
5.205075	-0.042175	0.004456	0.045410	0	0.0573883	0.0057049	0.9852772	0	0.06172204	0.00162315	0.99857283	0	89	506	60187110	60187110	147
5.205187	-0.048828	0.003418	0.047363	0	0.0569019	0.0053673	0.9850559	0	0.06090045	0.00222039	0.99846435	0	105	506	170116871	170116871	147
5.205202	-0.056946	0.000122	0.053772	0	0.0573559	0.0051594	0.9848137	0	0.06038690	0.00259638	0.99853563	0	121	506	2112727032	2112727032	147
5.229027	-0.064697	0.008179	0.060120	0	0.0579967	0.0052700	0.9850445	0	0.06004572	0.00267577	0.99913573	0	137	506	1344141398	1344141398	147
5.229051	-0.058105	0.016418	0.057251	0	0.0579166	0.0055771	0.9854259	0	0.06009507	0.00250053	0.99972439	0	153	506	-239622293	-239622293	147
5.229106	-0.043762	0.006897	0.052002	0	0.0577736	0.0058937	0.9852791	0	0.06094432	0.00214219	0.99991918	0	169	506	445255468	445255468	147
5.252986	-0.047913	-0.003052	0.045532	0	0.0583572	0.0061035	0.9844074	0	0.06195402	0.00175905	0.99997663	0	185	507	-434158007	-434158007	147
5.253023	-0.064026	-0.005066	0.033997	0	0.0591526	0.0060959	0.9837990	0	0.06253886	0.00156593	0.99990988	0	201	507	-1428425404	-1428425404	147
5.253042	-0.071289	-0.010925	0.026611	0	0.0595818	0.0058098	0.9842262	0	0.06295347	0.00166416	0.99980116	0	217	506	-1453416341	-1453416341	147
5.276985	-0.074829	-0.005981	0.025635	0	0.0598240	0.0054607	0.9848232	0	0.06323195	0.00168896	0.99966073	0	233	506	-185640042	-185640042	147
5.277012	-0.076904	0.014709	0.024475	0	0.0597401	0.0055275	0.9848022	0	0.06304431	0.00150442	0.99919772	0	249	506	-2113691092	-2113691092	147
5.277032	-0.067017	0.024170	0.025146	0	0.0589142	0.0060539	0.9844799	0	0.06236935	0.00158119	0.99872112	0	9	506	1947361656	1947361656	147
5.300948	-0.053467	0.018738	0.030518	0	0.0579109	0.0063763	0.9841213	0	0.06164718	0.00205183	0.99858928	0	25	506	1534146684	1534146684	147
5.300971	-0.047546	0.018066	0.038025	0	0.0575352	0.0060730	0.9838848	0	0.06106758	0.00252223	0.99868250	0	41	506	-176431254	-176431254	147
5.300984	-0.044556	0.023132	0.046692	0	0.0577240	0.0056839	0.9840031	0	0.06037188	0.00256777	0.99901080	0	57	506	-1167441049	-1167441049	147
5.324947	-0.045166	0.022461	0.054382	0	0.0579910	0.0059357	0.9841900	0	0.05972791	0.00216055	0.99910235	0	73	506	1628469355	1628469355	147
5.325005	-0.053467	0.017090	0.053650	0	0.0580940	0.0066261	0.9842224	0	0.05954146	0.00194454	0.99860859	0	89	507	1455334230	1455334230	147
5.325018	-0.064331	0.014099	0.042236	0	0.0583057	0.0071926	0.9842930	0	0.05983353	0.00235653	0.99837565	0	105	507	-124040861	-124040861	147
5.348899	-0.069397	0.016541	0.031738	0	0.0589027	0.0075207	0.9844055	0	0.06048703	0.00266409	0.99873638	0	121	507	593309351	593309351	147
5.348919	-0.069458	0.021362	0.030273	0	0.0595989	0.0075626	0.9844666	0	0.06114411	0.00229192	0.99901700	0	137	506	1562070288	1562070288	147
5.348965	-0.071838	0.018127	0.034729	0	0.0598965	0.0073090	0.9844799	0	0.06140709	0.00203824	0.99921036	0	153	506	-654030468	-654030468	147
5.372927	-0.072021	0.007202	0.038025	0	0.0597763	0.0070019	0.9845848	0	0.06145334	0.00254250	0.99962592	0	169	506	2074438952	2074438952	147
5.372952	-0.066406	0.003601	0.036438	0	0.0594730	0.0068989	0.9845848	0	0.06148648	0.00327659	0.99961591	0	185	506	1693543179	1693543179	147
5.372992	-0.064575	0.011780	0.034302	0	0.0590782	0.0068665	0.9840393	0	0.06140208	0.00358033	0.99867821	0	201	506	1521385295	1521385295	147
5.396906	-0.068115	0.017029	0.033875	0	0.0583820	0.0064373	0.9834919	0	0.06139135	0.00322938	0.99759674	0	217	506	-500293051	-500293051	147
5.396934	-0.070496	0.005310	0.034180	0	0.0573273	0.0059566	0.9838409	0	0.06144643	0.00232840	0.99712920	0	233	506	-921396763	-921396763	147
5.396946	-0.071655	-0.012512	0.038513	0	0.0565987	0.0060577	0.9850235	0	0.06105947	0.00149822	0.99698687	0	249	506	42272642	42272642	147
5.420789	-0.070984	-0.013000	0.049988	0	0.0563183	0.0062847	0.9861526	0	0.06031919	0.00128341	0.99670291	0	9	507	-178135899	-178135899	147
5.420815	-0.071655	-0.000244	0.059753	0	0.0559578	0.0063095	0.9863167	0	0.05987477	0.00142002	0.99638867	0	25	507	-1016082055	-1016082055	147
5.420828	-0.074463	0.006714	0.054504	0	0.0558777	0.0061226	0.9856129	0	0.06009293	0.00149798	0.99632001	0	41	507	-226436136	-226436136	147
5.444783	-0.068420	0.015869	0.041870	0	0.0565109	0.0057087	0.9848518	0	0.06077075	0.00146127	0.99653172	0	57	506	1196861798	1196861798	147
5.444847	-0.059631	0.034729	0.035767	0	0.0574932	0.0056133	0.9844322	0	0.06149101	0.00153279	0.99700141	0	73	506	-1315125594	-1315125594	147
5.444860	-0.062195	0.042175	0.034607	0	0.0585957	0.0061073	0.9842854	0	0.06223822	0.00186706	0.99742937	0	89	506	-321671538	-321671538	147
5.468750	-0.068420	0.028625	0.032166	0	0.0595608	0.0068264	0.9840527	0	0.06306791	0.00209308	0.99753809	0	105	506	1720853147	1720853147	147
5.468807	-0.062500	0.012634	0.029236	0	0.0597115	0.0072861	0.9837303	0	0.06377196	0.00198388	0.99765015	0	121	506	1377498234	1377498234	147
5.468820	-0.048767	0.001892	0.027771	0	0.0592384	0.0071487	0.9838219	0	0.06409669	0.00175118	0.99777651	0	137	506	-1858974677	-1858974677	147
5.492762	-0.044495	-0.010864	0.026611	0	0.0588531	0.0065250	0.9843369	0	0.06385231	0.00147629	0.99772954	0	153	506	148736031	148736031	147
5.492792	-0.053772	-0.018127	0.025574	0	0.0583382	0.0057392	0.9848022	0	0.06304741	0.00137997	0.99787235	0	169	507	-1193199014	-1193199014	147
5.492838	-0.063843	-0.009216	0.026428	0	0.0575924	0.0050602	0.9848232	0	0.06181264	0.00152016	0.99817395	0	185	506	-1182722659	-1182722659	147
5.516702	-0.065979	0.008301	0.030396	0	0.0571499	0.0045929	0.9845924	0	0.06070805	0.00151181	0.99817181	0	201	507	-244826747	-244826747	147
5.516727	-0.065674	0.023071	0.039490	0	0.0570755	0.0044498	0.9847698	0	0.06041431	0.00139928	0.99803376	0	217	506	1723596172	1723596172	147
5.516739	-0.067444	0.029724	0.050598	0	0.0572987	0.0047569	0.9852333	0	0.06065917	0.00141764	0.99820328	0	233	506	-886497485	-886497485	147
5.540661	-0.067078	0.022034	0.048096	0	0.0579891	0.0053482	0.9853630	0	0.06086302	0.00153351	0.99862170	0	249	506	-816686692	-816686692	147
5.540684	-0.060669	0.009888	0.033447	0	0.0587120	0.0058537	0.9851456	0	0.06117034	0.00192261	0.99883556	0	9	506	-1978986107	-1978986107	147
5.540697	-0.057129	0.015320	0.030701	0	0.0589943	0.0061474	0.9846287	0	0.06190991	0.00270557	0.99863267	0	25	506	-1435631176	-1435631176	147
5.564679	-0.065796	0.026794	0.041443	0	0.0591946	0.0062790	0.9838448	0	0.06298375	0.00345325	0.99839830	0	41	506	446814365	446814365	147
5.564709	-0.071045	0.024414	0.045959	0	0.0596428	0.0063858	0.9833164	0	0.06389666	0.00372100	0.99855208	0	57	506	-751640578	-751640578	147
5.564727	-0.059998	0.015564	0.041931	0	0.0598812	0.0067196	0.9831715	0	0.06410861	0.00367093	0.99892116	0	73	507	666936311	666936311	147
5.588577	-0.048645	0.007812	0.037170	0	0.0592213	0.0070782	0.9830914	0	0.06374574	0.00370193	0.99902678	0	89	506	-1600578655	-1600578655	147
5.588649	-0.051941	-0.001526	0.032288	0	0.0582523	0.0071335	0.9832554	0	0.06315708	0.00358582	0.99891305	0	105	506	1002438089	1002438089	147
5.588666	-0.064392	-0.007202	0.035522	0	0.0578327	0.0069923	0.9839535	0	0.06211805	0.00301552	0.99905372	0	121	506	-2115833693	-2115833693	147
5.612549	-0.069275	-0.002930	0.055176	0	0.0573425	0.0066051	0.9847450	0	0.06078696	0.00248885	0.99927831	0	137	506	-1377755815	-1377755815	147
5.612575	-0.057129	0.000061	0.075012	0	0.0565586	0.0061646	0.9850235	0	0.05993176	0.00218582	0.99927568	0	153	506	-1465789076	-1465789076	147
5.612639	-0.042419	-0.002258	0.073608	0	0.0563240	0.0060024	0.9848614	0	0.05983281	0.00192499	0.99932718	0	169	506	-884129641	-884129641	147
5.636544	-0.044006	-0.000916	0.061157	0	0.0569859	0.0059013	0.9848194	0	0.06011963	0.00205517	0.99923992	0	185	506	1380135336	1380135336	147
5.636576	-0.054504	0.001892	0.059204	0	0.0580997	0.0058861	0.9850483	0	0.06051111	0.00246859	0.99876785	0	201	506	1319668099	1319668099	147
5.636635	-0.057861	-0.001953	0.059387	0	0.0588760	0.0061455	0.9850426	0	0.06118727	0.00274134	0.99834943	0	217	506	1331464243	1331464243	147
5.660509	-0.056946	-0.012512	0.045959	0	0.0591354	0.0062103	0.9845676	0	0.06213999	0.00297523	0.99802423	0	233	507	2033289988	2033289988	147
5.660530	-0.057373	-0.014099	0.026001	0	0.0593128	0.0059662	0.9840755	0	0.06276274	0.00296926	0.99762130	0	249	507	1352843788	1352843788	147
5.660542	-0.058960	0.003052	0.017761	0	0.0593948	0.0059795	0.9839096	0	0.06270885	0.00235081	0.99738550	0	9	507	1697146076	1697146076	147
5.684507	-0.065613	0.022217	0.024780	0	0.0592041	0.0060806	0.9840851	0	0.06239843	0.00169039	0.99746990	0	25	506	-1913907071	-1913907071	147
5.684543	-0.076050	0.029480	0.030212	0	0.0588169	0.0057316	0.9843826	0	0.06218171	0.00169516	0.99778461	0	41	506	474860450	474860450	147
5.684563	-0.085571	0.027954	0.031006	0	0.0582943	0.0052261	0.9843616	0	0.06192255	0.00210857	0.99821091	0	57	506	1039243700	1039243700	147
5.708426	-0.094727	0.021118	0.041748	0	0.0576801	0.0049286	0.9843044	0	0.06144667	0.00233150	0.99859405	0	73	506	2101852829	2101852829	147
5.708484	-0.094299	0.013367	0.058167	0	0.0570889	0.0047474	0.9847870	0	0.06089497	0.00187421	0.99874735	0	89	506	-1407682265	-1407682265	147
5.708496	-0.075989	0.011536	0.064026	0	0.0568161	0.0046597	0.9853516	0	0.06040835	0.00077343	0.99892330	0	105	506	538846274	538846274	147
5.797408	-0.056580	0.017029	0.058533	0	0.0572205	0.0047894	0.9856033	0	0.05990005	-0.00007749	0.99933839	0	121	506	-240634144	-240634144	147
5.797459	-0.055542	0.027039	0.047180	0	0.0580654	0.0053844	0.9855480	0	0.05979538	0.00002980	0.99937725	0	137	507	-1753314527	-1753314527	147
5.797472	-0.064392	0.036133	0.034851	0	0.0588398	0.0062351	0.9849777	0	0.06076217	0.00083542	0.99893498	0	153	506	-977311697	-977311697	147
5.797484	-0.060242	0.038452	0.029846	0	0.0593815	0.0065651	0.9844170	0	0.06229949	0.00167871	0.99888182	0	169	507	-458189676	-458189676	147
5.797496	-0.045715	0.035889	0.027832	0	0.0595818	0.0064449	0.9844208	0	0.06323647	0.00215077	0.99923825	0	185	506	-272980948	-272980948	147
5.797529	-0.042603	0.032043	0.021301	0	0.0596428	0.0065651	0.9846668	0	0.06331086	0.00230503	0.99909663	0	201	506	-1009948938	-1009948938	147
5.797541	-0.056396	0.023132	0.014832	0	0.0596638	0.0068855	0.9847050	0	0.06302190	0.00252748	0.99831033	0	217	506	778636580	778636580	147
5.797553	-0.070923	0.014771	0.009949	0	0.0592918	0.0069332	0.9843121	0	0.06259346	0.00274849	0.99761057	0	233	506	1553366886	1553366886	147
5.797564	-0.076538	0.019653	0.010559	0	0.0586548	0.0067463	0.9839039	0	0.06201220	0.00254083	0.99739575	0	249	506	-2084294806	-2084294806	147
5.797596	-0.078674	0.028992	0.024475	0	0.0579071	0.0065346	0.9841709	0	0.06147122	0.00206590	0.99739456	0	9	506	-1393022115	-1393022115	147
5.797608	-0.079834	0.026917	0.039185	0	0.0571365	0.0061626	0.9849434	0	0.06095982	0.00181794	0.99736905	0	25	506	-347610757	-347610757	147
5.861310	-0.079102	0.016724	0.043945	0	0.0567265	0.0059776	0.9853630	0	0.06026340	0.00189710	0.99759078	0	41	506	-373305816	-373305816	147
5.861364	-0.071167	0.005737	0.050537	0	0.0567913	0.0063839	0.9849167	0	0.05960131	0.00196028	0.99813581	0	57	507	602811820	602811820	147
5.861377	-0.060547	-0.002747	0.056580	0	0.0572929	0.0067482	0.9842243	0	0.05948186	0.00190020	0.99843860	0	73	506	849584172	849584172	147
5.861389	-0.062256	0.000061	0.052246	0	0.0583153	0.0066338	0.9843903	0	0.06007314	0.00213575	0.99838877	0	89	507	775744754	775744754	147
5.861401	-0.071960	0.016235	0.047241	0	0.0595531	0.0063305	0.9852676	0	0.06098509	0.00261426	0.99845290	0	105	506	814828668	814828668	147
5.861435	-0.076965	0.029968	0.048767	0	0.0603790	0.0060616	0.9858894	0	0.06188345	0.00277448	0.99868870	0	121	506	-1601633933	-1601633933	147
5.861446	-0.071472	0.030273	0.050110	0	0.0604706	0.0058842	0.9858818	0	0.06274009	0.00259686	0.99882150	0	137	506	212242649	212242649	147
5.861458	-0.058838	0.025513	0.042236	0	0.0599556	0.0057011	0.9854946	0	0.06309795	0.00221992	0.99857950	0	153	506	-1533037298	-1533037298	147
5.885317	-0.053040	0.024475	0.029419	0	0.0591679	0.0056992	0.9852257	0	0.06238651	0.00174952	0.99798393	0	169	506	830750947	830750947	147
5.885396	-0.055847	0.026489	0.030151	0	0.0585117	0.0061836	0.9851608	0	0.06097364	0.00152564	0.99762654	0	185	506	1592161881	1592161881	147
5.885413	-0.060913	0.030701	0.045593	0	0.0580387	0.0067596	0.9849739	0	0.05987120	0.00150728	0.99788475	0	201	506	-529885918	-529885918	147
5.909261	-0.064575	0.032715	0.057434	0	0.0575027	0.0068588	0.9847736	0	0.05935955	0.00171804	0.99829674	0	217	507	1265064919	1265064919	147
5.909316	-0.063416	0.030029	0.058716	0	0.0570660	0.0064449	0.9849548	0	0.05906415	0.00217128	0.99852633	0	233	507	-356390430	-356390430	147
5.909329	-0.063232	0.029053	0.053284	0	0.0569210	0.0060062	0.9855118	0	0.05928993	0.00249219	0.99885559	0	249	507	-870281360	-870281360	147
5.933324	-0.066406	0.029419	0.044983	0	0.0571709	0.0058365	0.9859905	0	0.06015849	0.00281739	0.99927545	0	9	506	190455253	190455253	147
5.933360	-0.070374	0.027527	0.036987	0	0.0580578	0.0057564	0.9858437	0	0.06077814	0.00306249	0.99949408	0	25	506	727670816	727670816	147
5.933454	-0.070251	0.022095	0.027893	0	0.0591602	0.0058403	0.9850826	0	0.06091952	0.00266790	0.99954319	0	41	506	1971748280	1971748280	147
5.957252	-0.066895	0.015991	0.013794	0	0.0596905	0.0061665	0.9845657	0	0.06112409	0.00194669	0.99940753	0	57	506	1567106364	1567106364	147
5.957275	-0.065735	0.020935	-0.001465	0	0.0597382	0.0065460	0.9847813	0	0.06146812	0.00134182	0.99904680	0	73	506	2015219507	2015219507	147
5.957287	-0.057800	0.030945	-0.012085	0	0.0597897	0.0069504	0.9853134	0	0.06192470	0.00092769	0.99900937	0	89	506	125774788	125774788	147
5.981233	-0.045410	0.025330	-0.012878	0	0.0596180	0.0071507	0.9855595	0	0.06257010	0.00107098	0.99957371	0	105	506	-704944831	-704944831	147
5.981262	-0.043884	0.008301	0.005615	0	0.0588493	0.0067520	0.9853535	0	0.06309795	0.00148249	0.99990249	0	121	507	-1623534042	-1623534042	147
5.981274	-0.047729	0.000732	0.037537	0	0.0577679	0.0060959	0.9852428	0	0.06306744	0.00154066	0.99952078	0	137	506	-609625846	-609625846	147
6.005181	-0.049744	0.004150	0.064087	0	0.0569916	0.0058079	0.9852924	0	0.06247687	0.00166392	0.99886155	0	153	507	-2021290273	-2021290273	147
6.005278	-0.059143	0.003540	0.075867	0	0.0567551	0.0058765	0.9849243	0	0.06177926	0.00210476	0.99810004	0	169	506	-1318488809	-1318488809	147
6.005295	-0.072083	-0.002563	0.070190	0	0.0567417	0.0060558	0.9845486	0	0.06125569	0.00223541	0.99741459	0	185	506	1767957488	1767957488	147
6.029201	-0.073914	-0.002686	0.059082	0	0.0568218	0.0063667	0.9847546	0	0.06079125	0.00204706	0.99719739	0	201	506	-1259141325	-1259141325	147
6.029273	-0.064758	0.007263	0.059631	0	0.0572948	0.0066299	0.9849930	0	0.06050920	0.00204921	0.99737740	0	217	506	2116524293	2116524293	147
6.029286	-0.054504	0.024231	0.062134	0	0.0584183	0.0065327	0.9849243	0	0.06052113	0.00210190	0.99758792	0	233	506	1259807799	1259807799	147
6.053143	-0.050232	0.035645	0.053589	0	0.0598431	0.0062790	0.9847584	0	0.06051683	0.00206876	0.99780321	0	249	506	1557706492	1557706492	147
6.053170	-0.050415	0.026672	0.043396	0	0.0608501	0.0063267	0.9843769	0	0.06075811	0.00214052	0.99814177	0	9	506	1837946874	1837946874	147
6.053230	-0.051086	0.011963	0.035156	0	0.0611439	0.0067406	0.9838371	0	0.06165004	0.00215173	0.99830818	0	25	507	2113632452	2113632452	147
6.077139	-0.053894	0.011353	0.021790	0	0.0607986	0.0071106	0.9834881	0	0.06256175	0.00184083	0.99796796	0	41	506	2126723403	2126723403	147
6.077161	-0.056580	0.012329	0.007324	0	0.0599079	0.0070324	0.9835358	0	0.06277585	0.00122857	0.99743795	0	57	506	-155770295	-155770295	147
6.077203	-0.053223	0.001953	0.004883	0	0.0587330	0.0065308	0.9841290	0	0.06233978	0.00075793	0.99746609	0	73	507	-1528249454	-1528249454	147
6.101097	-0.051636	-0.006042	0.020569	0	0.0578938	0.0059834	0.9849644	0	0.06173944	0.00076485	0.99830127	0	89	506	359341810	359341810	147
6.101128	-0.059570	0.002441	0.042480	0	0.0576038	0.0057087	0.9851742	0	0.06136584	0.00083256	0.99929881	0	105	506	-1482742361	-1482742361	147
6.101146	-0.071960	0.021057	0.054016	0	0.0575428	0.0058136	0.9848042	0	0.06096935	0.00067210	0.99955845	0	121	506	-958392293	-958392293	147
6.125045	-0.080017	0.031860	0.054016	0	0.0576553	0.0060844	0.9845314	0	0.06035328	0.00061703	0.99910212	0	137	506	1162489724	1162489724	147
6.125069	-0.074341	0.024292	0.052429	0	0.0578938	0.0061893	0.9843082	0	0.06024480	0.00068474	0.99873686	0	153	506	749466945	749466945	147
6.125081	-0.065918	0.007629	0.057129	0	0.0579948	0.0062237	0.9840794	0	0.06099129	0.00086594	0.99868917	0	169	506	-649272681	-649272681	147
6.149059	-0.066650	-0.001160	0.062195	0	0.0582352	0.0064774	0.9842854	0	0.06180334	0.00138950	0.99862933	0	185	506	193310418	193310418	147
6.149119	-0.062683	0.000122	0.055664	0	0.0591011	0.0068245	0.9847183	0	0.06227636	0.00184822	0.99842262	0	201	506	-175736807	-175736807	147
6.149131	-0.052795	0.000793	0.043335	0	0.0602341	0.0071220	0.9844933	0	0.06270671	0.00187588	0.99819994	0	217	507	-1303263286	-1303263286	147
6.173021	-0.052795	-0.004517	0.036316	0	0.0608177	0.0073128	0.9838009	0	0.06302834	0.00174856	0.99810529	0	233	507	412921621	412921621	147
6.173073	-0.058289	-0.007019	0.033569	0	0.0603867	0.0071526	0.9834862	0	0.06304932	0.00175691	0.99797821	0	249	506	1778137682	1778137682	147
6.173086	-0.058472	-0.002075	0.032166	0	0.0590324	0.0066586	0.9836082	0	0.06281638	0.00179982	0.99764967	0	9	506	-968253082	-968253082	147
6.196981	-0.059692	0.006042	0.033508	0	0.0574512	0.0060120	0.9838467	0	0.06235981	0.00152206	0.99726868	0	25	506	1352300144	1352300144	147
6.197002	-0.061829	0.015198	0.042664	0	0.0563908	0.0053635	0.9842205	0	0.06178856	0.00094056	0.99708223	0	41	506	-373466663	-373466663	147
6.197048	-0.054382	0.018982	0.057922	0	0.0561066	0.0050964	0.9849663	0	0.06104279	0.00061703	0.99724483	0	57	506	-1833315138	-1833315138	147
6.220948	-0.042480	0.015320	0.069702	0	0.0564079	0.0052490	0.9855804	0	0.06005573	0.00112891	0.99760628	0	73	506	663985168	663985168	147
6.220973	-0.036743	0.008667	0.070312	0	0.0569134	0.0054035	0.9852734	0	0.05937576	0.00222111	0.99795294	0	89	506	-1593387701	-1593387701	147
6.220987	-0.041565	-0.003662	0.057739	0	0.0573692	0.0055370	0.9843845	0	0.05938435	0.00300241	0.99814796	0	105	507	239464103	239464103	147
6.244946	-0.054138	-0.017456	0.040955	0	0.0581226	0.0057907	0.9839058	0	0.05991340	0.00309372	0.99798369	0	121	507	-41290560	-41290560	147
6.244968	-0.059143	-0.023132	0.031372	0	0.0593109	0.0061970	0.9841595	0	0.06099987	0.00288081	0.99781466	0	137	507	-1395781927	-1395781927	147
6.244981	-0.051025	-0.024658	0.025635	0	0.0601578	0.0066586	0.9843521	0	0.06246448	0.00276756	0.99796009	0	153	506	973671756	973671756	147
6.268923	-0.045654	-0.024719	0.019348	0	0.0603371	0.0067635	0.9840508	0	0.06361175	0.00268912	0.99798799	0	169	506	-927284769	-927284769	147
6.268967	-0.046875	-0.023499	0.018860	0	0.0601959	0.0067043	0.9839401	0	0.06395197	0.00245810	0.99803662	0	185	506	1287989046	1287989046	147
6.268980	-0.048279	-0.026306	0.026306	0	0.0599403	0.0068150	0.9841499	0	0.06345916	0.00216198	0.99845600	0	201	506	461364403	461364403	147
6.292861	-0.051331	-0.026794	0.033386	0	0.0594616	0.0064621	0.9843063	0	0.06255698	0.00218987	0.99868679	0	217	506	-495593795	-495593795	147
6.292939	-0.055420	-0.020142	0.037415	0	0.0582714	0.0055466	0.9845867	0	0.06162262	0.00238109	0.99837518	0	233	506	-860953031	-860953031	147
6.292952	-0.057312	-0.009094	0.044800	0	0.0566540	0.0048866	0.9848690	0	0.06077552	0.00207567	0.99784827	0	249	506	-944172877	-944172877	147
6.316786	-0.054321	0.010010	0.052246	0	0.0559063	0.0047302	0.9848938	0	0.06037641	0.00161266	0.99737573	0	9	507	-1534806051	-1534806051	147
6.316845	-0.049744	0.028015	0.051880	0	0.0565147	0.0050316	0.9850826	0	0.06048942	0.00156999	0.99711514	0	25	506	-2044489811	-2044489811	147
6.316858	-0.050537	0.028870	0.048523	0	0.0575809	0.0056839	0.9854679	0	0.06063151	0.00164175	0.99716830	0	41	507	-89129164	-89129164	147
6.340795	-0.057068	0.020264	0.046265	0	0.0584793	0.0061550	0.9854774	0	0.06058669	0.00170875	0.99756265	0	57	506	89668763	89668763	147
6.340820	-0.066162	0.018311	0.041687	0	0.0595398	0.0063267	0.9852943	0	0.06058598	0.00201154	0.99838185	0	73	506	-2089282933	-2089282933	147
6.340870	-0.070068	0.022583	0.032776	0	0.0606155	0.0064793	0.9852657	0	0.06068087	0.00223136	0.99931765	0	89	506	-1094472808	-1094472808	147
6.364809	-0.061951	0.024536	0.021912	0	0.0610085	0.0065269	0.9850597	0	0.06082344	0.00200224	0.99965644	0	105	506	2107988075	2107988075	147
6.364833	-0.052307	0.018311	0.012329	0	0.0607376	0.0063782	0.9846859	0	0.06120539	0.00169539	0.99934220	0	121	506	-86149880	-86149880	147
6.364846	-0.054321	0.011169	0.006653	0	0.0601311	0.0060253	0.9842567	0	0.06166339	0.00171375	0.99904132	0	137	506	-1019837482	-1019837482	147
6.388791	-0.062988	0.010010	0.007751	0	0.0591431	0.0056381	0.9839249	0	0.06174254	0.00183082	0.99891710	0	153	506	1666321181	1666321181	147
6.388820	-0.071777	0.006104	0.017883	0	0.0578995	0.0056534	0.9843159	0	0.06132221	0.00168061	0.99852204	0	169	507	865762235	865762235	147
6.388838	-0.080383	-0.000977	0.034790	0	0.0569630	0.0059013	0.9852448	0	0.06071281	0.00136971	0.99810171	0	185	507	616236630	616236630	147
6.412711	-0.079285	-0.002014	0.052246	0	0.0565948	0.0059185	0.9858570	0	0.06014371	0.00130939	0.99826455	0	201	507	901162056	901162056	147
6.412791	-0.063477	0.001465	0.063293	0	0.0566940	0.0058289	0.9858742	0	0.05935931	0.00152016	0.99865270	0	217	506	260029915	260029915	147
6.412807	-0.046814	0.006165	0.065430	0	0.0571861	0.0057030	0.9853573	0	0.05858231	0.00183487	0.99896765	0	233	506	1141954132	1141954132	147
6.436672	-0.041443	0.013000	0.062866	0	0.0579605	0.0054989	0.9845200	0	0.05852771	0.00217414	0.99941897	0	249	506	1008104408	1008104408	147
6.436763	-0.046265	0.017334	0.056335	0	0.0587959	0.0053329	0.9838848	0	0.05900955	0.00229573	0.99963832	0	9	506	-281374457	-281374457	147
6.436779	-0.051453	0.015503	0.048523	0	0.0594177	0.0051460	0.9836712	0	0.05951524	0.00253797	0.99960375	0	25	506	-1874557239	-1874557239	147
6.460687	-0.051025	0.012878	0.044250	0	0.0597572	0.0051575	0.9835186	0	0.06027865	0.00337052	0.99990845	0	41	506	-527327878	-527327878	147
6.460709	-0.051331	0.015259	0.034424	0	0.0598736	0.0056400	0.9834328	0	0.06143427	0.00391865	1.00029635	0	57	507	-1538765104	-1538765104	147
6.460753	-0.053284	0.017212	0.023499	0	0.0596390	0.0060139	0.9837799	0	0.06272173	0.00355268	1.00009465	0	73	506	-243841329	-243841329	147
6.484618	-0.046387	0.018250	0.032043	0	0.0590153	0.0058270	0.9842358	0	0.06381154	0.00320745	0.99936152	0	89	507	-653263712	-653263712	147
6.484641	-0.027039	0.028015	0.047241	0	0.0582523	0.0054150	0.9843254	0	0.06388354	0.00320530	0.99865103	0	105	507	12855256	12855256	147
6.484653	-0.010620	0.036926	0.045349	0	0.0575752	0.0052166	0.9842548	0	0.06239820	0.00297523	0.99820542	0	121	507	-2038220960	-2038220960	147
6.508635	-0.018555	0.031921	0.035889	0	0.0569763	0.0052929	0.9844704	0	0.06028414	0.00267172	0.99789810	0	137	506	-107745424	-107745424	147
6.508667	-0.038452	0.024231	0.036743	0	0.0564327	0.0052414	0.9849319	0	0.05897236	0.00252771	0.99783349	0	153	506	94900413	94900413	147
6.508680	-0.041260	0.022766	0.044006	0	0.0562592	0.0050449	0.9849987	0	0.05874968	0.00254798	0.99824262	0	169	506	1954297270	1954297270	147
6.532605	-0.034119	0.022644	0.049988	0	0.0567570	0.0054092	0.9846592	0	0.05909801	0.00286555	0.99879074	0	185	506	994405742	994405742	147
6.532635	-0.035400	0.018982	0.059143	0	0.0577316	0.0063343	0.9845619	0	0.05976701	0.00315619	0.99867439	0	201	506	1597745104	1597745104	147
6.532652	-0.043091	0.014587	0.067810	0	0.0587959	0.0068226	0.9845467	0	0.06062555	0.00312257	0.99783206	0	217	506	1939102541	1939102541	147
6.556561	-0.054504	0.016968	0.064026	0	0.0595894	0.0065899	0.9842377	0	0.06146097	0.00310349	0.99742699	0	233	506	-1858830568	-1858830568	147
6.556618	-0.067627	0.022034	0.047424	0	0.0598030	0.0064392	0.9840069	0	0.06213260	0.00325227	0.99790645	0	249	507	-732723798	-732723798	147
6.556630	-0.076599	0.018616	0.028687	0	0.0596371	0.0067558	0.9838581	0	0.06257987	0.00331688	0.99810410	0	9	507	1471593794	1471593794	147
6.580560	-0.079102	0.012268	0.018494	0	0.0594311	0.0070724	0.9835358	0	0.06267166	0.00332332	0.99774861	0	25	506	-716319747	-716319747	147
6.580585	-0.070984	0.015198	0.020874	0	0.0589600	0.0069618	0.9835167	0	0.06203198	0.00330448	0.99794054	0	41	506	129347685	129347685	147
6.580632	-0.055359	0.018799	0.029236	0	0.0581245	0.0065212	0.9841461	0	0.06087279	0.00301743	0.99867606	0	57	506	637091484	637091484	147
6.604455	-0.044006	0.014038	0.036804	0	0.0573788	0.0059834	0.9850521	0	0.06001043	0.00238395	0.99901223	0	73	506	1764262991	1764262991	147
6.604479	-0.045044	0.013123	0.048157	0	0.0569439	0.0054436	0.9853096	0	0.05956411	0.00184083	0.99889040	0	89	506	1471053016	1471053016	147
6.604530	-0.058044	0.021851	0.058899	0	0.0567245	0.0051689	0.9844437	0	0.05943394	0.00183105	0.99880219	0	105	506	752450962	752450962	147
6.628457	-0.067444	0.032227	0.059082	0	0.0568008	0.0053902	0.9833622	0	0.05972743	0.00198340	0.99873114	0	121	506	-243616852	-243616852	147
6.628479	-0.062439	0.033997	0.057800	0	0.0571899	0.0057068	0.9830017	0	0.06010699	0.00199628	0.99861026	0	137	506	2079745670	2079745670	147
6.628491	-0.055542	0.018921	0.061035	0	0.0578690	0.0058708	0.9832611	0	0.06057239	0.00218010	0.99864292	0	153	507	-2031097071	-2031097071	147
6.717333	-0.053223	-0.004700	0.062073	0	0.0587730	0.0063095	0.9835548	0	0.06153345	0.00249600	0.99879217	0	169	507	-261028429	-261028429	147
6.717356	-0.047546	-0.015015	0.059021	0	0.0595284	0.0068722	0.9837303	0	0.06272364	0.00288105	0.99891472	0	185	507	159668694	159668694	147
6.717368	-0.041443	-0.003113	0.053223	0	0.0597401	0.0069809	0.9841099	0	0.06362081	0.00346446	0.99892998	0	201	506	-960208757	-960208757	147
6.717380	-0.041870	0.014282	0.045776	0	0.0592175	0.0065079	0.9846954	0	0.06388807	0.00371051	0.99882746	0	217	506	-1779083589	-1779083589	147
6.717435	-0.050354	0.019592	0.040039	0	0.0584011	0.0057583	0.9850063	0	0.06337547	0.00318027	0.99886990	0	233	506	577528762	577528762	147
6.717446	-0.062988	0.014343	0.037537	0	0.0579224	0.0054855	0.9848995	0	0.06247234	0.00242138	0.99923992	0	249	506	-2017801214	-2017801214	147
6.717458	-0.076294	0.010559	0.037476	0	0.0575943	0.0056400	0.9848690	0	0.06154704	0.00198317	0.99961448	0	9	506	-1481297506	-1481297506	147
6.717487	-0.091187	0.016235	0.042725	0	0.0571594	0.0055542	0.9849758	0	0.06063867	0.00182414	0.99953699	0	25	506	-1594975168	-1594975168	147
6.717499	-0.100159	0.021790	0.051025	0	0.0568352	0.0054607	0.9848557	0	0.05997014	0.00170422	0.99916553	0	41	506	-1435988011	-1435988011	147
6.717510	-0.091125	0.015808	0.049500	0	0.0569344	0.0057831	0.9845047	0	0.05956578	0.00141788	0.99906301	0	57	507	1424486750	1424486750	147
6.717523	-0.074341	0.009460	0.037720	0	0.0574780	0.0061607	0.9841576	0	0.05925560	0.00128007	0.99928164	0	73	507	163787278	163787278	147
6.741293	-0.075317	0.015015	0.028687	0	0.0580540	0.0064049	0.9838867	0	0.05924177	0.00185275	0.99940944	0	89	507	630330519	630330519	147
6.741314	-0.089355	0.017151	0.023865	0	0.0587463	0.0067940	0.9836636	0	0.05964899	0.00284481	0.99910879	0	105	507	295462875	295462875	147
6.741326	-0.091064	0.003601	0.016541	0	0.0598965	0.0069923	0.9835663	0	0.06043220	0.00352025	0.99837613	0	121	506	633815442	633815442	147
6.765305	-0.076721	-0.003662	0.011719	0	0.0608997	0.0066147	0.9836216	0	0.06152105	0.00347996	0.99768472	0	137	506	800705887	800705887	147
6.765363	-0.060730	0.005798	0.015320	0	0.0609951	0.0058956	0.9837322	0	0.06239104	0.00283623	0.99753809	0	153	506	-1188300216	-1188300216	147
6.765376	-0.055237	0.012939	0.023376	0	0.0601788	0.0053291	0.9840298	0	0.06250858	0.00234032	0.99776649	0	169	506	-1884280434	-1884280434	147
6.789252	-0.056152	0.013977	0.034973	0	0.0591049	0.0053635	0.9847488	0	0.06198955	0.00222921	0.99798417	0	185	506	-1494610897	-1494610897	147
6.789317	-0.051758	0.017456	0.047668	0	0.0583611	0.0057011	0.9855576	0	0.06143069	0.00194383	0.99821568	0	201	507	95255892	95255892	147
6.789333	-0.044067	0.018250	0.060547	0	0.0576782	0.0057220	0.9858036	0	0.06125665	0.00146031	0.99840975	0	217	505	961023905	961023905	147
6.813183	-0.042175	0.008545	0.076904	0	0.0568657	0.0054703	0.9854755	0	0.06112218	0.00125360	0.99841714	0	233	507	-1958525093	-1958525093	147
6.813206	-0.043152	-0.000488	0.084473	0	0.0561218	0.0054607	0.9851704	0	0.06037641	0.00144434	0.99826884	0	249	507	-2059359860	-2059359860	147
6.813253	-0.042358	0.003113	0.077026	0	0.0556564	0.0059662	0.9850845	0	0.05934310	0.00161839	0.99822021	0	9	507	-447604096	-447604096	147
6.837193	-0.049133	0.005981	0.067505	0	0.0559826	0.0065804	0.9850006	0	0.05922890	0.00131702	0.99856400	0	25	506	-184448343	-184448343	147
6.837221	-0.064453	-0.002136	0.057007	0	0.0570469	0.0067310	0.9849796	0	0.06029987	0.00079513	0.99907637	0	41	506	-2092328493	-2092328493	147
6.837234	-0.075684	-0.007019	0.044067	0	0.0582523	0.0065002	0.9849548	0	0.06151795	0.00086665	0.99933648	0	57	506	141306479	141306479	147
6.861165	-0.080261	0.000061	0.035461	0	0.0593510	0.0064430	0.9847012	0	0.06214714	0.00156856	0.99914479	0	73	506	1062514499	1062514499	147
6.861190	-0.076782	0.010315	0.026855	0	0.0600185	0.0067844	0.9843140	0	0.06234288	0.00209284	0.99865580	0	89	506	-1984383366	-1984383366	147
6.861203	-0.064636	0.012817	0.018188	0	0.0599365	0.0071621	0.9839344	0	0.06250262	0.00228572	0.99837923	0	105	506	-798605655	-798605655	147
6.885097	-0.055481	0.003296	0.019043	0	0.0593376	0.0070953	0.9837017	0	0.06269836	0.00248718	0.99850059	0	121	506	-170931208	-170931208	147
6.885126	-0.055847	-0.009583	0.023865	0	0.0587234	0.0066338	0.9836559	0	0.06253529	0.00257874	0.99868512	0	137	507	-897592159	-897592159	147
