T[s]	GYRO_X	GYRO_Y	GYRO_Z	GyroSts	ACC_X	ACC_Y	ACC_Z	AccSts	INC_X	INC_Y	INC_Z	IncSts	Counter	Latency	RxCRC	CalCRC	DG_ID	
0.155446	-0.024109	0.010620	-0.042175	0	-0.0025539	0.9956799	-0.0087166	0	-0.00228333	1.00283837	-0.00780177	0	225	506	121963400	121963400	147
0.155461	-0.005493	-0.003235	-0.035156	0	-0.0017910	0.9954205	-0.0088234	0	-0.00238252	1.00230575	-0.00777721	0	241	506	2008544033	2008544033	147
0.155483	0.005432	-0.002136	-0.027161	0	-0.0013676	0.9957180	-0.0085659	0	-0.00219440	1.00189161	-0.00803995	0	1	507	1114820622	1114820622	147
0.179446	0.000244	0.005371	-0.034790	0	-0.0013657	0.9964809	-0.0084095	0	-0.00195837	1.00169611	-0.00814056	0	17	507	541512622	541512622	147
0.179458	-0.011902	0.008484	-0.043518	0	-0.0016556	0.9963760	-0.0085335	0	-0.00193858	1.00155687	-0.00802231	0	33	507	-1352694404	-1352694404	147
0.179480	-0.010803	0.008179	-0.041565	0	-0.0019264	0.9958096	-0.0087566	0	-0.00162339	1.00154757	-0.00797415	0	49	507	-280847081	-280847081	147
0.203445	-0.008789	0.006592	-0.034119	0	-0.0018902	0.9956207	-0.0086346	0	-0.00102329	1.00192285	-0.00797176	0	65	507	1012792603	1012792603	147
0.207935	-0.020142	0.005249	-0.024963	0	-0.0017738	0.9954720	-0.0082436	0	-0.00092745	1.00213671	-0.00774789	0	81	507	-1108731980	-1108731980	147
0.207945	-0.025391	0.011902	-0.021484	0	-0.0020351	0.9953041	-0.0081768	0	-0.00124311	1.00174141	-0.00745082	0	97	506	1148776003	1148776003	147
0.227445	-0.017761	0.017822	-0.025146	0	-0.0024261	0.9952831	-0.0084114	0	-0.00133801	1.00119090	-0.00737548	0	113	506	-2145183356	-2145183356	147
0.227494	-0.013977	0.006042	-0.025696	0	-0.0023994	0.9952126	-0.0085125	0	-0.00134826	1.00095773	-0.00768685	0	129	506	1454986423	1454986423	147
0.227504	-0.015442	-0.009705	-0.017578	0	-0.0021877	0.9948902	-0.0085926	0	-0.00142813	1.00102925	-0.00847387	0	145	506	-997614475	-997614475	147
0.251378	-0.017456	-0.011230	-0.002502	0	-0.0021324	0.9945889	-0.0089321	0	-0.00128293	1.00092697	-0.00906873	0	161	506	594806916	594806916	147
0.251387	-0.027344	-0.006104	0.006958	0	-0.0021343	0.9946671	-0.0092678	0	-0.00101280	1.00041580	-0.00889897	0	177	507	163402000	163402000	147
0.251440	-0.041870	-0.003967	-0.002625	0	-0.0021763	0.9948997	-0.0092506	0	-0.00078034	1.00013781	-0.00839758	0	193	507	156178458	156178458	147
0.275370	-0.047546	-0.002197	-0.025208	0	-0.0022507	0.9951344	-0.0090046	0	-0.00043201	1.00062847	-0.00792313	0	209	507	303047631	303047631	147
0.275380	-0.041809	-0.002991	-0.039917	0	-0.0024109	0.9955063	-0.0088139	0	-0.00007772	1.00182390	-0.00765085	0	225	507	-795892726	-795892726	147
0.275428	-0.031128	-0.013733	-0.036804	0	-0.0027580	0.9959240	-0.0086765	0	-0.00017405	1.00319314	-0.00774837	0	241	506	-1653662669	-1653662669	147
0.299348	-0.022034	-0.024780	-0.021851	0	-0.0027428	0.9962406	-0.0085049	0	-0.00095415	1.00399280	-0.00792575	0	1	506	170863291	170863291	147
0.299357	-0.019104	-0.024414	-0.009460	0	-0.0020142	0.9961834	-0.0087147	0	-0.00184631	1.00421953	-0.00783968	0	17	506	-2081739385	-2081739385	147
0.299367	-0.016479	-0.009521	-0.012756	0	-0.0012684	0.9956760	-0.0094967	0	-0.00205064	1.00420737	-0.00772977	0	33	506	452502732	452502732	147
0.323320	-0.012207	0.012817	-0.027893	0	-0.0010090	0.9954720	-0.0100288	0	-0.00145698	1.00405908	-0.00799179	0	49	506	-1102535420	-1102535420	147
0.323330	-0.018494	0.016785	-0.046753	0	-0.0011749	0.9957409	-0.0098362	0	-0.00070214	1.00424719	-0.00843573	0	65	506	353192280	353192280	147
0.323340	-0.028870	0.005554	-0.054626	0	-0.0015717	0.9954643	-0.0093956	0	-0.00040269	1.00475240	-0.00863361	0	81	506	-1340758445	-1340758445	147
0.347294	-0.030823	0.002197	-0.040466	0	-0.0018482	0.9948254	-0.0090733	0	-0.00048351	1.00471091	-0.00852466	0	97	507	-886371854	-886371854	147
0.347305	-0.029724	-0.006897	-0.023254	0	-0.0019569	0.9949856	-0.0087929	0	-0.00078678	1.00395823	-0.00833559	0	113	507	1961246199	1961246199	147
0.347315	-0.036316	-0.025513	-0.012085	0	-0.0019188	0.9954853	-0.0085659	0	-0.00142002	1.00313425	-0.00799775	0	129	506	-1248098489	-1248098489	147
0.371273	-0.048706	-0.024231	0.001648	0	-0.0017014	0.9954014	-0.0085831	0	-0.00198865	1.00252080	-0.00745368	0	145	506	-1938349915	-1938349915	147
0.371363	-0.051025	-0.002747	0.007263	0	-0.0017776	0.9954414	-0.0089703	0	-0.00198197	1.00203991	-0.00721645	0	161	506	-1005401950	-1005401950	147
0.371373	-0.042419	0.015747	-0.003723	0	-0.0023689	0.9960442	-0.0093937	0	-0.00177264	1.00167871	-0.00749660	0	177	506	346607299	346607299	147
0.395251	-0.035706	0.028259	-0.023987	0	-0.0030785	0.9962502	-0.0093460	0	-0.00175548	1.00135660	-0.00775218	0	193	506	986116762	986116762	147
0.395262	-0.032898	0.030212	-0.042236	0	-0.0035839	0.9960365	-0.0091267	0	-0.00165272	1.00111365	-0.00772452	0	209	506	1308804163	1308804163	147
0.395317	-0.027954	0.015564	-0.042480	0	-0.0036640	0.9962044	-0.0092564	0	-0.00135517	1.00133753	-0.00808239	0	225	506	624005133	624005133	147
0.419250	-0.019531	0.005554	-0.022888	0	-0.0031357	0.9962635	-0.0093918	0	-0.00105715	1.00194263	-0.00890923	0	241	507	167848881	167848881	147
0.419263	-0.016968	0.016846	-0.005005	0	-0.0024700	0.9958744	-0.0089397	0	-0.00116134	1.00223875	-0.00922918	0	1	507	1736996276	1736996276	147
0.419319	-0.023621	0.026794	-0.003967	0	-0.0025272	0.9958267	-0.0084000	0	-0.00214243	1.00224853	-0.00890803	0	17	507	1909771442	1909771442	147
0.443225	-0.024536	0.018555	-0.006165	0	-0.0031624	0.9960690	-0.0086555	0	-0.00321698	1.00240636	-0.00848031	0	33	506	1434681400	1434681400	147
0.443236	-0.013306	0.010986	0.002686	0	-0.0034943	0.9961853	-0.0093460	0	-0.00307107	1.00247169	-0.00825405	0	49	507	-327339829	-327339829	147
0.443258	-0.004761	0.011597	0.011719	0	-0.0031223	0.9964752	-0.0096989	0	-0.00206304	1.00221920	-0.00854278	0	65	506	-400951154	-400951154	147
0.467197	-0.005554	0.003723	0.003784	0	-0.0024242	0.9966278	-0.0095272	0	-0.00128198	1.00210118	-0.00888991	0	81	506	428425001	428425001	147
0.467207	-0.006470	-0.009521	-0.015808	0	-0.0021095	0.9959164	-0.0090961	0	-0.00086021	1.00235915	-0.00842237	0	97	506	738475230	738475230	147
0.467229	-0.002502	-0.006531	-0.026794	0	-0.0022850	0.9951591	-0.0088863	0	-0.00049138	1.00259662	-0.00770354	0	113	506	1049318555	1049318555	147
0.491190	-0.004272	0.002869	-0.029663	0	-0.0025673	0.9954624	-0.0088406	0	-0.00028229	1.00268078	-0.00769877	0	129	506	1588513006	1588513006	147
0.491200	-0.015320	-0.004150	-0.034363	0	-0.0025616	0.9958878	-0.0085506	0	-0.00041747	1.00279474	-0.00804567	0	145	507	-442149200	-442149200	147
0.491222	-0.023499	-0.006653	-0.034424	0	-0.0021667	0.9956245	-0.0081959	0	-0.00093341	1.00312257	-0.00824332	0	161	507	1869140941	1869140941	147
0.515176	-0.026794	0.008850	-0.022095	0	-0.0017910	0.9955845	-0.0080891	0	-0.00182700	1.00379753	-0.00848794	0	177	507	1707967281	1707967281	147
0.515235	-0.023376	0.013306	-0.001953	0	-0.0014896	0.9959412	-0.0080051	0	-0.00251508	1.00434875	-0.00880790	0	193	507	-1881730417	-1881730417	147
0.515245	-0.008972	0.003662	0.006775	0	-0.0009537	0.9959202	-0.0079060	0	-0.00252414	1.00416732	-0.00908399	0	209	507	706689033	706689033	147
0.539150	0.001038	0.007690	-0.003235	0	-0.0008202	0.9956722	-0.0082150	0	-0.00233269	1.00337076	-0.00950217	0	225	506	1189536813	1189536813	147
0.539200	0.000366	0.018005	-0.015503	0	-0.0017872	0.9955635	-0.0087280	0	-0.00217271	1.00243306	-0.00963759	0	241	506	180040938	180040938	147
0.539210	0.001526	0.008301	-0.020935	0	-0.0029049	0.9954758	-0.0088024	0	-0.00183511	1.00178814	-0.00888181	0	1	506	-1310065255	-1310065255	147
0.563126	-0.000122	-0.009155	-0.024353	0	-0.0030155	0.9956493	-0.0085373	0	-0.00171709	1.00171614	-0.00793409	0	17	506	1966315570	1966315570	147
0.563137	-0.014648	-0.010254	-0.027039	0	-0.0024357	0.9960098	-0.0082207	0	-0.00219131	1.00206780	-0.00753951	0	33	506	-1785532203	-1785532203	147
0.563193	-0.030090	-0.000488	-0.022827	0	-0.0019836	0.9959087	-0.0078411	0	-0.00274515	1.00246191	-0.00750327	0	49	506	1752680466	1752680466	147
0.587095	-0.029358	0.007385	-0.013611	0	-0.0018501	0.9957504	-0.0075951	0	-0.00283527	1.00249815	-0.00761890	0	65	507	-2009311603	-2009311603	147
0.587106	-0.016724	0.010681	-0.005737	0	-0.0018482	0.9959469	-0.0076942	0	-0.00269318	1.00210261	-0.00772858	0	81	507	-1660948640	-1660948640	147
0.587187	-0.007202	0.012024	-0.002258	0	-0.0018139	0.9958286	-0.0081291	0	-0.00258684	1.00176620	-0.00759792	0	97	507	-288764587	-288764587	147
0.611070	-0.010010	0.017700	-0.010254	0	-0.0021496	0.9955025	-0.0087090	0	-0.00233388	1.00183773	-0.00736380	0	113	507	-1642842066	-1642842066	147
0.611081	-0.019958	0.026855	-0.019226	0	-0.0029755	0.9957161	-0.0090332	0	-0.00178337	1.00206280	-0.00748610	0	129	506	612682065	612682065	147
0.611091	-0.016785	0.028015	-0.015198	0	-0.0031433	0.9959259	-0.0091019	0	-0.00116873	1.00210667	-0.00782299	0	145	506	780634389	780634389	147
0.635045	-0.005798	0.018311	-0.004944	0	-0.0025234	0.9955215	-0.0092945	0	-0.00086951	1.00200629	-0.00780082	0	161	506	-2047252558	-2047252558	147
0.635055	-0.008728	0.006592	0.001343	0	-0.0024261	0.9954681	-0.0094166	0	-0.00079513	1.00209999	-0.00769329	0	177	506	-425369210	-425369210	147
0.635065	-0.015137	0.003052	-0.004456	0	-0.0030441	0.9961185	-0.0091839	0	-0.00071120	1.00244236	-0.00788260	0	193	506	130940341	130940341	147
0.659048	-0.010376	0.009766	-0.013733	0	-0.0032272	0.9961414	-0.0088444	0	-0.00101686	1.00245547	-0.00783110	0	209	506	1816979628	1816979628	147
0.659059	-0.005249	0.009094	-0.016602	0	-0.0024223	0.9955254	-0.0086727	0	-0.00191307	1.00195026	-0.00723338	0	225	506	26903273	26903273	147
0.659069	-0.003662	-0.003052	-0.016235	0	-0.0016003	0.9955978	-0.0085888	0	-0.00262070	1.00174356	-0.00672984	0	241	507	724753690	724753690	147
0.683026	0.003784	-0.006165	-0.009766	0	-0.0014591	0.9960995	-0.0085907	0	-0.00268006	1.00232577	-0.00687623	0	1	507	-1473148172	-1473148172	147
0.683082	0.010620	-0.000122	-0.005676	0	-0.0015488	0.9961967	-0.0090103	0	-0.00256205	1.00289106	-0.00733614	0	17	507	-321537877	-321537877	147
0.683091	0.001831	0.008789	-0.006958	0	-0.0016556	0.9961224	-0.0095501	0	-0.00252914	1.00268126	-0.00763607	0	33	506	-1490684273	-1490684273	147
0.707024	-0.018005	0.023926	0.001892	0	-0.0019798	0.9959469	-0.0096645	0	-0.00257230	1.00193286	-0.00790668	0	49	506	-1956987223	-1956987223	147
0.707034	-0.028442	0.033569	0.010437	0	-0.0023174	0.9955463	-0.0094242	0	-0.00274253	1.00098991	-0.00820899	0	65	506	-1101744967	-1101744967	147
0.707088	-0.027527	0.029358	-0.005432	0	-0.0022717	0.9952526	-0.0090771	0	-0.00257730	1.00057292	-0.00830078	0	81	506	-934868949	-934868949	147
0.730999	-0.030823	0.023621	-0.033142	0	-0.0021667	0.9951630	-0.0089569	0	-0.00175428	1.00120974	-0.00819588	0	97	506	990430429	990430429	147
0.731009	-0.035461	0.023743	-0.039307	0	-0.0025597	0.9950275	-0.0091648	0	-0.00104785	1.00195575	-0.00811720	0	113	506	1435346131	1435346131	147
0.731058	-0.029541	0.021912	-0.018921	0	-0.0029144	0.9948845	-0.0092220	0	-0.00112510	1.00217652	-0.00824690	0	129	506	632565339	632565339	147
0.755002	-0.017639	0.007141	0.005615	0	-0.0026588	0.9950027	-0.0088215	0	-0.00153470	1.00231481	-0.00857973	0	145	507	-1685531727	-1685531727	147
0.755015	-0.010132	-0.016296	0.015076	0	-0.0022964	0.9954338	-0.0084095	0	-0.00151396	1.00220084	-0.00893879	0	161	507	-1617175123	-1617175123	147
0.755025	-0.007996	-0.019897	0.004578	0	-0.0021572	0.9960270	-0.0083866	0	-0.00114942	1.00157237	-0.00921726	0	177	507	-1745357272	-1745357272	147
0.778972	-0.009338	0.002441	-0.015137	0	-0.0020008	0.9963436	-0.0086155	0	-0.00144172	1.00109982	-0.00943375	0	193	507	-375688902	-375688902	147
0.778983	-0.008545	0.014404	-0.027954	0	-0.0018902	0.9961300	-0.0087738	0	-0.00249219	1.00141001	-0.00957918	0	209	506	264408213	264408213	147
0.778993	-0.002747	0.006226	-0.028625	0	-0.0019741	0.9958839	-0.0088062	0	-0.00308132	1.00213504	-0.00940394	0	225	506	1938413414	1938413414	147
0.802973	-0.001892	-0.002563	-0.021851	0	-0.0021210	0.9960155	-0.0088997	0	-0.00274587	1.00238895	-0.00874615	0	241	506	-1652702908	-1652702908	147
0.802984	-0.004211	-0.007690	-0.016663	0	-0.0023956	0.9964409	-0.0088196	0	-0.00201178	1.00217772	-0.00800991	0	1	506	-156983706	-156983706	147
0.803006	-0.004761	-0.008057	-0.014038	0	-0.0026913	0.9969311	-0.0084476	0	-0.00143385	1.00206637	-0.00764179	0	17	506	-1775195953	-1775195953	147
0.826951	-0.010925	-0.004639	-0.007202	0	-0.0024834	0.9970703	-0.0083599	0	-0.00139546	1.00217247	-0.00756478	0	33	507	174704243	174704243	147
0.827015	-0.021973	-0.006653	-0.004944	0	-0.0019321	0.9966545	-0.0086117	0	-0.00165081	1.00237226	-0.00771761	0	49	507	2115163069	2115163069	147
0.827024	-0.024231	-0.012695	-0.013794	0	-0.0016537	0.9960842	-0.0087986	0	-0.00184321	1.00227475	-0.00819683	0	65	507	55809346	55809346	147
0.850950	-0.010132	-0.012329	-0.024048	0	-0.0017776	0.9958420	-0.0091209	0	-0.00204825	1.00194287	-0.00846887	0	81	507	-2013438980	-2013438980	147
0.850999	0.003723	-0.002197	-0.030579	0	-0.0020390	0.9959717	-0.0095615	0	-0.00218058	1.00187111	-0.00810361	0	97	507	-1507855143	-1507855143	147
0.851008	-0.002197	0.014038	-0.028625	0	-0.0019455	0.9961300	-0.0095692	0	-0.00231576	1.00191045	-0.00762343	0	113	506	-146593179	-146593179	147
0.874924	-0.016968	0.024780	-0.015442	0	-0.0015297	0.9962330	-0.0092106	0	-0.00290203	1.00200891	-0.00744843	0	129	506	-1536610121	-1536610121	147
0.874934	-0.019653	0.013855	-0.005188	0	-0.0015602	0.9963131	-0.0088902	0	-0.00346279	1.00257421	-0.00746512	0	145	506	468582573	468582573	147
0.874987	-0.012329	-0.008850	-0.015991	0	-0.0022774	0.9959812	-0.0085640	0	-0.00308919	1.00323296	-0.00766206	0	161	506	349128429	349128429	147
0.898924	-0.010803	-0.017273	-0.037109	0	-0.0030079	0.9954357	-0.0083351	0	-0.00241232	1.00318456	-0.00810075	0	177	506	168478287	168478287	147
0.898934	-0.025269	-0.015808	-0.040466	0	-0.0030384	0.9954376	-0.0085411	0	-0.00235510	1.00296593	-0.00843120	0	193	506	379286413	379286413	147
0.898981	-0.044861	-0.009766	-0.025330	0	-0.0026112	0.9958134	-0.0088444	0	-0.00250745	1.00345349	-0.00837326	0	209	507	-842029223	-842029223	147
0.922903	-0.046875	0.008728	-0.005310	0	-0.0024281	0.9960518	-0.0087414	0	-0.00239348	1.00382757	-0.00816774	0	225	507	-1605831389	-1605831389	147
0.922916	-0.033508	0.018860	0.010132	0	-0.0023060	0.9962502	-0.0085812	0	-0.00215888	1.00328207	-0.00784516	0	241	507	-1002800208	-1002800208	147
0.922925	-0.022766	0.008911	0.004089	0	-0.0019779	0.9963474	-0.0088291	0	-0.00207639	1.00263476	-0.00726581	0	1	507	-825219500	-825219500	147
0.946903	-0.020630	0.001831	-0.026184	0	-0.0018959	0.9958534	-0.0092945	0	-0.00229239	1.00270247	-0.00683475	0	17	506	-1814422367	-1814422367	147
0.946914	-0.022827	0.004333	-0.054138	0	-0.0022392	0.9948177	-0.0094910	0	-0.00236630	1.00306106	-0.00705767	0	33	506	-863835197	-863835197	147
0.946923	-0.022888	0.009644	-0.055969	0	-0.0026379	0.9942303	-0.0093575	0	-0.00179482	1.00297046	-0.00768661	0	49	506	-785181199	-785181199	147
0.970871	-0.018250	0.020813	-0.034058	0	-0.0029202	0.9947586	-0.0092125	0	-0.00144553	1.00268650	-0.00794268	0	65	506	970971593	970971593	147
0.970881	-0.008606	0.037598	-0.010071	0	-0.0032387	0.9958248	-0.0090733	0	-0.00230598	1.00261569	-0.00788093	0	81	506	-1212055063	-1212055063	147
0.970890	-0.001709	0.051270	0.000610	0	-0.0035324	0.9964600	-0.0090218	0	-0.00340557	1.00259852	-0.00835299	0	97	506	646558949	646558949	147
0.994848	-0.006531	0.048706	0.005005	0	-0.0033245	0.9963131	-0.0093327	0	-0.00322461	1.00283837	-0.00913119	0	113	506	-2088824951	-2088824951	147
0.994902	-0.015076	0.035767	0.007751	0	-0.0024853	0.9959736	-0.0095863	0	-0.00180268	1.00326800	-0.00918293	0	129	507	1460318796	1460318796	147
0.994912	-0.020935	0.025391	-0.001709	0	-0.0017185	0.9959946	-0.0094852	0	-0.00049448	1.00313759	-0.00859547	0	145	507	423316026	423316026	147
1.018821	-0.025146	0.016174	-0.017212	0	-0.0014000	0.9961529	-0.0094795	0	-0.00036669	1.00256252	-0.00822568	0	161	507	-958000155	-958000155	147
1.018869	-0.022583	0.008789	-0.019592	0	-0.0013752	0.9959679	-0.0094109	0	-0.00111032	1.00226474	-0.00819206	0	177	506	-1357829242	-1357829242	147
1.018879	-0.017883	0.006226	-0.006958	0	-0.0016136	0.9952908	-0.0090294	0	-0.00177050	1.00220680	-0.00814724	0	193	506	1426010096	1426010096	147
1.082786	-0.020447	0.010620	0.010681	0	-0.0017834	0.9946709	-0.0088406	0	-0.00201821	1.00210428	-0.00804424	0	209	506	-422187541	-422187541	147
1.082798	-0.020935	0.015076	0.019226	0	-0.0016403	0.9946556	-0.0091496	0	-0.00215602	1.00182796	-0.00785589	0	225	506	380251128	380251128	147
1.082911	-0.010925	0.007996	0.009888	0	-0.0016823	0.9948616	-0.0095348	0	-0.00238347	1.00130725	-0.00772762	0	241	506	-2139551185	-2139551185	147
1.082921	0.001892	-0.002136	-0.005737	0	-0.0021114	0.9950542	-0.0095177	0	-0.00259376	1.00108409	-0.00819230	0	1	506	-406965164	-406965164	147
1.082930	0.010864	0.003479	-0.016846	0	-0.0022221	0.9956799	-0.0093231	0	-0.00241899	1.00151205	-0.00910664	0	17	506	2103078364	2103078364	147
1.082940	0.013794	0.021912	-0.026428	0	-0.0017815	0.9963417	-0.0092602	0	-0.00165009	1.00158501	-0.00940633	0	33	507	294506166	294506166	147
1.082979	0.007324	0.020996	-0.032166	0	-0.0015774	0.9963741	-0.0092831	0	-0.00085211	1.00069928	-0.00877380	0	49	507	-193123347	-193123347	147
1.082989	-0.007507	-0.006226	-0.030640	0	-0.0020313	0.9960537	-0.0094776	0	-0.00056934	1.00038242	-0.00788212	0	65	507	396908734	396908734	147
1.131763	-0.018616	-0.020752	-0.023071	0	-0.0025864	0.9956169	-0.0097275	0	-0.00070262	1.00148892	-0.00724697	0	81	507	2010044387	2010044387	147
1.131814	-0.017212	-0.006775	-0.015564	0	-0.0025349	0.9951458	-0.0095253	0	-0.00098729	1.00249672	-0.00715899	0	97	506	-1645062452	-1645062452	147
1.131823	-0.014343	0.005432	-0.023315	0	-0.0019913	0.9950314	-0.0089703	0	-0.00102925	1.00261426	-0.00750685	0	113	506	458970652	458970652	147
1.131833	-0.014038	-0.005371	-0.039551	0	-0.0018635	0.9952812	-0.0087490	0	-0.00060534	1.00255156	-0.00785089	0	129	506	2026750093	2026750093	147
1.131842	-0.007446	-0.024963	-0.040527	0	-0.0024338	0.9954929	-0.0089340	0	-0.00031018	1.00256419	-0.00816035	0	145	506	-1462095680	-1462095680	147
1.131881	-0.006042	-0.030762	-0.027161	0	-0.0029774	0.9955044	-0.0092163	0	-0.00054383	1.00263691	-0.00867629	0	161	506	300729841	300729841	147
1.171726	-0.016663	-0.016479	-0.015076	0	-0.0032082	0.9953690	-0.0094566	0	-0.00078011	1.00280499	-0.00932455	0	177	506	-994494999	-994494999	147
1.171741	-0.024292	0.004333	-0.011902	0	-0.0031719	0.9952011	-0.0093040	0	-0.00098276	1.00280976	-0.00977325	0	193	507	1455821042	1455821042	147
1.171797	-0.026917	0.012695	-0.012756	0	-0.0026703	0.9951687	-0.0088711	0	-0.00157213	1.00252843	-0.00988340	0	209	507	-799023835	-799023835	147
1.171807	-0.028198	0.001709	-0.015137	0	-0.0021648	0.9953709	-0.0087681	0	-0.00211358	1.00205874	-0.00964212	0	225	507	-38337104	-38337104	147
1.171816	-0.016113	-0.015320	-0.021912	0	-0.0021992	0.9954929	-0.0089035	0	-0.00185275	1.00161386	-0.00916219	0	241	507	1226035751	1226035751	147
1.195676	0.004395	-0.013672	-0.024109	0	-0.0024719	0.9952068	-0.0088539	0	-0.00100946	1.00143957	-0.00870204	0	1	506	486455612	486455612	147
1.195741	0.000671	0.005554	-0.022034	0	-0.0026760	0.9950466	-0.0088520	0	-0.00057220	1.00147820	-0.00840592	0	17	506	-2041469672	-2041469672	147
1.195751	-0.023132	0.015137	-0.019836	0	-0.0028706	0.9951057	-0.0091534	0	-0.00089526	1.00161123	-0.00836611	0	33	506	660610735	660610735	147
1.219672	-0.029785	0.003967	-0.004822	0	-0.0029697	0.9947758	-0.0093288	0	-0.00125051	1.00169444	-0.00851893	0	49	506	2028733147	2028733147	147
1.219721	-0.017456	-0.009705	0.014771	0	-0.0028057	0.9946194	-0.0091610	0	-0.00120139	1.00167322	-0.00863910	0	65	506	-775970130	-775970130	147
1.219730	-0.004395	-0.007751	0.013794	0	-0.0024757	0.9949913	-0.0090981	0	-0.00131679	1.00169516	-0.00846171	0	81	506	556088760	556088760	147
1.243648	0.000366	0.000000	-0.003174	0	-0.0021954	0.9951267	-0.0093746	0	-0.00171161	1.00135565	-0.00795817	0	97	507	183172052	183172052	147
1.243659	-0.004883	0.002014	-0.017212	0	-0.0020561	0.9950657	-0.0094376	0	-0.00183105	1.00049710	-0.00781226	0	113	507	-1903360276	-1903360276	147
1.243712	-0.015015	0.009705	-0.024353	0	-0.0020733	0.9952698	-0.0088997	0	-0.00171661	1.00018167	-0.00836539	0	129	507	-1333166067	-1333166067	147
1.267622	-0.020813	0.024841	-0.027405	0	-0.0022964	0.9954700	-0.0083637	0	-0.00174689	1.00098348	-0.00881195	0	145	507	-1836138683	-1836138683	147
1.267632	-0.019226	0.032532	-0.027344	0	-0.0024929	0.9955616	-0.0083313	0	-0.00202656	1.00192404	-0.00862694	0	161	506	1073101256	1073101256	147
1.267684	-0.016418	0.027344	-0.022095	0	-0.0022945	0.9957695	-0.0084515	0	-0.00246644	1.00225711	-0.00823689	0	177	506	-871903112	-871903112	147
1.291624	-0.008667	0.016479	-0.010071	0	-0.0019836	0.9955215	-0.0085392	0	-0.00280213	1.00236440	-0.00812340	0	193	506	1751584536	1751584536	147
1.291635	0.001648	0.012390	0.000549	0	-0.0018311	0.9946594	-0.0087299	0	-0.00277591	1.00238824	-0.00823951	0	209	506	2065046914	2065046914	147
1.291645	0.002747	0.016357	0.001892	0	-0.0015354	0.9944782	-0.0088940	0	-0.00236082	1.00218773	-0.00827956	0	225	506	618649052	618649052	147
1.315595	0.003296	0.011780	-0.001343	0	-0.0010586	0.9953575	-0.0091228	0	-0.00197744	1.00198984	-0.00814009	0	241	506	-426678581	-426678581	147
1.315605	0.006592	-0.005127	-0.003601	0	-0.0007496	0.9961395	-0.0095310	0	-0.00216031	1.00175333	-0.00800920	0	1	507	-457139732	-457139732	147
1.315615	-0.002869	-0.015747	-0.007080	0	-0.0008507	0.9963150	-0.0096340	0	-0.00266528	1.00116777	-0.00810480	0	17	507	1314022077	1314022077	147
1.339574	-0.020203	-0.009888	-0.012512	0	-0.0013390	0.9961128	-0.0092525	0	-0.00284314	1.00069785	-0.00832248	0	33	507	-349722058	-349722058	147
1.339627	-0.020142	0.005249	-0.016418	0	-0.0019665	0.9955311	-0.0086765	0	-0.00252056	1.00090742	-0.00831604	0	49	507	-784535450	-784535450	147
1.339637	-0.003235	0.018616	-0.014221	0	-0.0021763	0.9950352	-0.0081959	0	-0.00210762	1.00138664	-0.00795126	0	65	506	448108193	448108193	147
1.363553	0.002075	0.023682	-0.004456	0	-0.0018120	0.9952698	-0.0081215	0	-0.00205684	1.00184774	-0.00779796	0	81	506	102427620	102427620	147
1.363603	-0.007690	0.025818	0.007080	0	-0.0016956	0.9955406	-0.0083256	0	-0.00209379	1.00243068	-0.00848866	0	97	506	-305041722	-305041722	147
1.363612	-0.014893	0.026855	0.013000	0	-0.0021038	0.9951077	-0.0086117	0	-0.00191689	1.00288248	-0.00952029	0	113	506	37366282	37366282	147
1.387526	-0.019226	0.018799	0.008301	0	-0.0022488	0.9947720	-0.0090084	0	-0.00189781	1.00309777	-0.00993347	0	129	506	1831951702	1831951702	147
1.387537	-0.024109	0.011536	-0.004150	0	-0.0018635	0.9948807	-0.0091686	0	-0.00209808	1.00310493	-0.00941920	0	145	506	-2138917976	-2138917976	147
1.387591	-0.023987	0.014404	-0.015686	0	-0.0017529	0.9950981	-0.0089626	0	-0.00223088	1.00264406	-0.00854111	0	161	506	267936774	267936774	147
1.411506	-0.012451	0.016113	-0.027954	0	-0.0021782	0.9957390	-0.0089130	0	-0.00227785	1.00191545	-0.00819755	0	177	507	-1946678777	-1946678777	147
1.411519	0.003052	0.016846	-0.041687	0	-0.0024357	0.9963245	-0.0092869	0	-0.00200438	1.00154805	-0.00824666	0	193	507	2031364775	2031364775	147
1.411572	0.003967	0.020874	-0.043701	0	-0.0024338	0.9959488	-0.0096912	0	-0.00127006	1.00165606	-0.00805855	0	209	507	-169806386	-169806386	147
1.435489	-0.011597	0.020752	-0.028320	0	-0.0023193	0.9953747	-0.0096207	0	-0.00078797	1.00206232	-0.00790071	0	225	507	1590772717	1590772717	147
1.435503	-0.024475	0.023254	-0.009888	0	-0.0020905	0.9953842	-0.0090294	0	-0.00098085	1.00274801	-0.00801301	0	241	506	636653730	636653730	147
1.435512	-0.023804	0.033997	-0.003967	0	-0.0021305	0.9954510	-0.0084610	0	-0.00124574	1.00290251	-0.00805092	0	1	506	6960781	6960781	147
1.459449	-0.016663	0.039490	-0.009827	0	-0.0024586	0.9954414	-0.0084362	0	-0.00117278	1.00203514	-0.00780606	0	17	506	-195767893	-195767893	147
1.459460	-0.014648	0.040100	-0.015930	0	-0.0025730	0.9954872	-0.0086651	0	-0.00111747	1.00149632	-0.00723433	0	33	506	2027166694	2027166694	147
1.459482	-0.018066	0.044800	-0.019043	0	-0.0022240	0.9949837	-0.0086155	0	-0.00154877	1.00185704	-0.00665951	0	49	506	1781613769	1781613769	147
1.483453	-0.016663	0.042236	-0.014954	0	-0.0015907	0.9943581	-0.0086517	0	-0.00220656	1.00233483	-0.00691938	0	65	506	144966024	144966024	147
1.483463	-0.019409	0.026611	-0.000854	0	-0.0012341	0.9947624	-0.0092716	0	-0.00234604	1.00295401	-0.00796580	0	81	507	-1854364973	-1854364973	147
1.483485	-0.033447	0.014404	0.009033	0	-0.0016766	0.9954948	-0.0098839	0	-0.00203681	1.00358534	-0.00873590	0	97	507	182133236	182133236	147
1.507531	-0.040833	0.013000	0.012573	0	-0.0021973	0.9956799	-0.0097313	0	-0.00169754	1.00332236	-0.00897121	0	113	507	1571772641	1571772641	147
1.507595	-0.037170	0.016846	0.013184	0	-0.0016918	0.9958801	-0.0090981	0	-0.00121570	1.00233340	-0.00916219	0	129	507	427311253	427311253	147
1.507604	-0.030884	0.018921	0.002625	0	-0.0007133	0.9960861	-0.0086613	0	-0.00092649	1.00183845	-0.00907564	0	145	506	-1202825780	-1202825780	147
1.531450	-0.023560	0.016174	-0.013367	0	-0.0003929	0.9958591	-0.0086117	0	-0.00163221	1.00211644	-0.00835514	0	161	506	1051547456	1051547456	147
1.531501	-0.018921	0.019043	-0.022949	0	-0.0010166	0.9958267	-0.0087204	0	-0.00293183	1.00233293	-0.00789618	0	177	506	-392533160	-392533160	147
1.531510	-0.017700	0.028381	-0.025757	0	-0.0022678	0.9963017	-0.0090122	0	-0.00337291	1.00199723	-0.00828552	0	193	506	-751736115	-751736115	147
1.555456	-0.013062	0.031494	-0.023987	0	-0.0034027	0.9962463	-0.0094795	0	-0.00255346	1.00147510	-0.00857830	0	209	506	-1175823708	-1175823708	147
1.555480	-0.006470	0.030273	-0.018921	0	-0.0039577	0.9954796	-0.0096207	0	-0.00154757	1.00124502	-0.00838852	0	225	506	609070027	609070027	147
1.555525	-0.009033	0.030273	-0.011353	0	-0.0038223	0.9950886	-0.0091629	0	-0.00130439	1.00125360	-0.00822806	0	241	507	402185579	402185579	147
1.579375	-0.015564	0.027893	-0.007935	0	-0.0030823	0.9954033	-0.0083981	0	-0.00166249	1.00141048	-0.00814509	0	1	507	6387636	6387636	147
1.579399	-0.007690	0.024719	-0.016418	0	-0.0024128	0.9959106	-0.0080185	0	-0.00199771	1.00189209	-0.00824022	0	17	507	1222643863	1222643863	147
1.579409	0.010681	0.026428	-0.023376	0	-0.0021877	0.9960117	-0.0084743	0	-0.00207567	1.00248003	-0.00854826	0	33	507	599542412	599542412	147
1.603354	0.016541	0.030212	-0.016235	0	-0.0021687	0.9955578	-0.0091152	0	-0.00209355	1.00272322	-0.00863552	0	49	506	1115955374	1115955374	147
1.603365	0.004639	0.032959	-0.010498	0	-0.0022297	0.9952831	-0.0092468	0	-0.00196576	1.00251365	-0.00849366	0	65	506	1064074487	1064074487	147
1.603387	-0.011292	0.033936	-0.010925	0	-0.0023746	0.9956703	-0.0091724	0	-0.00155115	1.00196791	-0.00839210	0	81	506	2131224015	2131224015	147
1.627328	-0.017761	0.027039	-0.006470	0	-0.0025387	0.9960384	-0.0094299	0	-0.00158238	1.00145197	-0.00837374	0	97	506	1933063895	1933063895	147
1.627339	-0.013794	0.014587	-0.004822	0	-0.0024700	0.9957504	-0.0097485	0	-0.00220799	1.00123024	-0.00840998	0	113	506	1346832258	1346832258	147
1.627360	-0.011536	0.010254	-0.007202	0	-0.0020638	0.9952755	-0.0096474	0	-0.00248933	1.00146770	-0.00839639	0	129	506	-1358733772	-1358733772	147
1.651273	-0.016418	0.010376	-0.000549	0	-0.0019436	0.9951096	-0.0092945	0	-0.00216222	1.00227547	-0.00847697	0	145	507	474033421	474033421	147
1.651319	-0.016907	0.002319	0.010071	0	-0.0025578	0.9948406	-0.0089397	0	-0.00148821	1.00295711	-0.00892162	0	161	507	-2077381599	-2077381599	147
1.651329	-0.011047	-0.009460	0.008484	0	-0.0032158	0.9943981	-0.0088730	0	-0.00081944	1.00291586	-0.00930643	0	177	507	1381461894	1381461894	147
1.675303	-0.011658	-0.012024	-0.002502	0	-0.0033131	0.9945011	-0.0092640	0	-0.00066257	1.00250125	-0.00913906	0	193	507	583663488	583663488	147
1.675358	-0.018860	-0.001099	-0.007874	0	-0.0030327	0.9950695	-0.0094852	0	-0.00091791	1.00212073	-0.00881457	0	209	506	-1413155658	-1413155658	147
1.675368	-0.022278	0.014465	-0.007874	0	-0.0026398	0.9954147	-0.0092373	0	-0.00114322	1.00207973	-0.00876427	0	225	506	1299761673	1299761673	147
1.699287	-0.014954	0.021973	-0.008972	0	-0.0023861	0.9954567	-0.0091076	0	-0.00125337	1.00261641	-0.00880337	0	241	506	1272013378	1272013378	147
1.699310	0.000916	0.016235	-0.010315	0	-0.0022888	0.9952068	-0.0091038	0	-0.00145364	1.00332475	-0.00872803	0	1	506	2140890139	2140890139	147
1.699353	0.007446	0.002991	-0.008667	0	-0.0019398	0.9949455	-0.0087681	0	-0.00185251	1.00325322	-0.00844145	0	17	506	598158217	598158217	147
1.723264	-0.002808	-0.011169	-0.004517	0	-0.0015392	0.9953003	-0.0083275	0	-0.00206852	1.00242400	-0.00787997	0	33	506	-205265541	-205265541	147
1.723275	-0.016113	-0.017273	-0.005066	0	-0.0014839	0.9959202	-0.0083675	0	-0.00183797	1.00204229	-0.00740123	0	49	506	777903108	777903108	147
1.723328	-0.022583	-0.011841	-0.003906	0	-0.0013905	0.9962196	-0.0087948	0	-0.00150704	1.00221181	-0.00737095	0	65	507	175341298	175341298	147
1.747259	-0.021545	-0.010437	0.007263	0	-0.0010242	0.9962959	-0.0089550	0	-0.00134420	1.00212526	-0.00766277	0	81	507	-1581678578	-1581678578	147
1.747270	-0.017456	-0.014526	0.010437	0	-0.0008144	0.9960346	-0.0089188	0	-0.00124955	1.00209689	-0.00797868	0	97	507	1672778811	1672778811	147
1.747291	-0.012146	-0.014099	-0.004028	0	-0.0012932	0.9954491	-0.0090904	0	-0.00099444	1.00231385	-0.00814176	0	113	507	-1885356767	-1885356767	147
1.771242	-0.001038	-0.012207	-0.023193	0	-0.0021000	0.9950256	-0.0094128	0	-0.00054431	1.00213051	-0.00841331	0	129	506	-1149912501	-1149912501	147
1.771254	0.011719	-0.008118	-0.039124	0	-0.0023956	0.9947701	-0.0096779	0	-0.00032496	1.00183988	-0.00886035	0	145	506	-2111941371	-2111941371	147
1.771276	0.014893	0.000610	-0.041321	0	-0.0024242	0.9946499	-0.0095406	0	-0.00069237	1.00193238	-0.00897098	0	161	506	-910590278	-910590278	147
1.795241	0.005615	0.008179	-0.030334	0	-0.0026226	0.9950352	-0.0090122	0	-0.00128794	1.00195527	-0.00873160	0	177	506	-1179514658	-1179514658	147
1.795252	-0.010925	0.009277	-0.028442	0	-0.0026512	0.9957027	-0.0085335	0	-0.00169945	1.00183725	-0.00858235	0	193	506	-2053604960	-2053604960	147
1.795274	-0.024353	0.007385	-0.032715	0	-0.0026245	0.9958038	-0.0082893	0	-0.00205040	1.00204325	-0.00864887	0	209	506	865313149	865313149	147
1.819184	-0.022034	0.007751	-0.023865	0	-0.0028629	0.9950924	-0.0083733	0	-0.00232077	1.00233817	-0.00900173	0	225	507	1251687242	1251687242	147
1.819248	-0.012756	0.008118	-0.013611	0	-0.0028419	0.9945965	-0.0087128	0	-0.00235915	1.00218344	-0.00957227	0	241	507	-108171706	-108171706	147
1.819257	-0.018311	0.009216	-0.020691	0	-0.0021210	0.9949417	-0.0089321	0	-0.00220966	1.00192213	-0.00976086	0	1	507	-615944570	-615944570	147
1.843187	-0.033264	0.009766	-0.035767	0	-0.0014381	0.9952869	-0.0089626	0	-0.00187922	1.00201511	-0.00954127	0	17	507	1109032026	1109032026	147
1.843243	-0.038635	0.005005	-0.038696	0	-0.0015907	0.9953594	-0.0088348	0	-0.00156069	1.00225019	-0.00966907	0	33	506	-2127725037	-2127725037	147
1.843253	-0.033936	0.001953	-0.029175	0	-0.0019684	0.9956112	-0.0086803	0	-0.00156164	1.00260615	-0.00989032	0	49	506	-653588500	-653588500	147
1.867163	-0.034607	0.010376	-0.020569	0	-0.0020199	0.9958096	-0.0089760	0	-0.00176883	1.00287008	-0.00930572	0	65	506	1018472497	1018472497	147
1.867173	-0.045166	0.027588	-0.017517	0	-0.0022850	0.9957676	-0.0096149	0	-0.00168967	1.00233507	-0.00816274	0	81	506	-593526772	-593526772	147
1.867226	-0.047119	0.039551	-0.018066	0	-0.0026913	0.9958267	-0.0100498	0	-0.00123882	1.00147891	-0.00766158	0	97	506	60072480	60072480	147
1.891081	-0.032227	0.033691	-0.023804	0	-0.0027561	0.9959164	-0.0100574	0	-0.00125456	1.00133514	-0.00829172	0	113	506	-892856262	-892856262	147
1.891091	-0.012390	0.015869	-0.033630	0	-0.0026302	0.9959011	-0.0096397	0	-0.00201416	1.00130415	-0.00924635	0	129	507	1974302312	1974302312	147
1.891100	0.001160	0.008301	-0.033875	0	-0.0025349	0.9958172	-0.0090580	0	-0.00253129	1.00064945	-0.00965166	0	145	507	-2087136340	-2087136340	147
1.915137	0.002869	0.011658	-0.018433	0	-0.0024948	0.9955177	-0.0086937	0	-0.00235438	1.00012755	-0.00938106	0	161	507	290014498	290014498	147
1.915148	0.000061	0.002991	-0.005859	0	-0.0026836	0.9953022	-0.0086079	0	-0.00197244	1.00011349	-0.00880980	0	177	507	75756311	75756311	147
1.915157	-0.001343	-0.012512	-0.009583	0	-0.0031796	0.9954071	-0.0084896	0	-0.00205660	1.00026226	-0.00852704	0	193	506	-1005080279	-1005080279	147
1.939086	-0.008301	-0.010010	-0.016113	0	-0.0034351	0.9954662	-0.0082035	0	-0.00274825	1.00086093	-0.00871301	0	209	506	901542084	901542084	147
1.939099	-0.020813	0.007507	-0.018372	0	-0.0030746	0.9953346	-0.0080490	0	-0.00312591	1.00190759	-0.00881219	0	225	506	-855807126	-855807126	147
1.939109	-0.028381	0.023193	-0.025146	0	-0.0026951	0.9952450	-0.0082092	0	-0.00263643	1.00255990	-0.00831890	0	241	506	530224329	530224329	147
1.963073	-0.026794	0.030212	-0.029053	0	-0.0026131	0.9953461	-0.0084305	0	-0.00200129	1.00255728	-0.00770140	0	1	506	-4604680	-4604680	147
1.963178	-0.017944	0.021912	-0.021118	0	-0.0024471	0.9956036	-0.0082684	0	-0.00178504	1.00243926	-0.00799394	0	17	505	-386602382	-386602382	147
1.963188	-0.005981	0.005066	-0.018494	0	-0.0022850	0.9958153	-0.0079956	0	-0.00196695	1.00248408	-0.00904870	0	33	507	-141144418	-141144418	147
1.987048	0.007263	0.003723	-0.034973	0	-0.0023804	0.9956455	-0.0082779	0	-0.00245380	1.00288725	-0.00941682	0	49	507	-1797231356	-1797231356	147
1.987098	0.023804	0.019165	-0.048828	0	-0.0024033	0.9954109	-0.0089073	0	-0.00278902	1.00376725	-0.00856137	0	65	507	-1897157889	-1897157889	147
1.987107	0.030396	0.031677	-0.034912	0	-0.0021572	0.9955559	-0.0093861	0	-0.00259590	1.00430012	-0.00770664	0	81	506	-718647713	-718647713	147
2.011036	0.018494	0.035828	-0.010986	0	-0.0020943	0.9954891	-0.0094318	0	-0.00230646	1.00371289	-0.00797844	0	97	506	-1605357552	-1605357552	147
2.011047	0.003357	0.031616	-0.002747	0	-0.0023899	0.9951019	-0.0089798	0	-0.00229859	1.00267649	-0.00871992	0	113	506	130417854	130417854	147
2.011100	-0.008362	0.018616	-0.000305	0	-0.0026817	0.9950390	-0.0084476	0	-0.00206113	1.00227284	-0.00845599	0	129	506	-592956621	-592956621	147
2.035000	-0.017090	0.012695	0.006958	0	-0.0027962	0.9951534	-0.0081978	0	-0.00139070	1.00254440	-0.00740790	0	145	506	1559402723	1559402723	147
2.035010	-0.015991	0.021423	0.007935	0	-0.0027466	0.9953365	-0.0084496	0	-0.00081253	1.00273228	-0.00721526	0	161	506	-859376528	-859376528	147
2.035058	-0.009644	0.027039	-0.003113	0	-0.0026474	0.9956360	-0.0089779	0	-0.00051785	1.00257230	-0.00812316	0	177	506	1555941786	1555941786	147
2.058996	-0.009155	0.022339	-0.018311	0	-0.0025635	0.9954147	-0.0090809	0	-0.00076294	1.00253820	-0.00904942	0	193	506	-1991165651	-1991165651	147
2.059006	-0.009583	0.018250	-0.027100	0	-0.0023136	0.9946709	-0.0089512	0	-0.00149179	1.00270176	-0.00933838	0	209	507	-1116633380	-1116633380	147
2.059016	-0.003723	0.018738	-0.027161	0	-0.0020561	0.9943218	-0.0091057	0	-0.00191474	1.00257850	-0.00910211	0	225	507	343834505	343834505	147
2.082972	0.003601	0.022339	-0.020813	0	-0.0022373	0.9945316	-0.0092068	0	-0.00194120	1.00196433	-0.00894356	0	241	507	1652037919	1652037919	147
2.082982	0.005249	0.023804	-0.007996	0	-0.0028782	0.9948807	-0.0091057	0	-0.00196910	1.00120807	-0.00906301	0	1	507	-588274068	-588274068	147
2.082992	-0.002319	0.016113	0.003784	0	-0.0032959	0.9952927	-0.0092125	0	-0.00221252	1.00082588	-0.00902510	0	17	506	1873323479	1873323479	147
2.106947	-0.012085	0.008545	0.003540	0	-0.0030327	0.9954491	-0.0094433	0	-0.00258160	1.00102711	-0.00888252	0	33	506	-937385326	-937385326	147
2.106958	-0.013550	0.010681	-0.005615	0	-0.0026512	0.9949207	-0.0092583	0	-0.00227904	1.00148940	-0.00907493	0	49	506	1890901385	1890901385	147
2.106968	-0.010193	0.010803	-0.010010	0	-0.0027447	0.9943352	-0.0088825	0	-0.00108171	1.00194144	-0.00946069	0	65	506	1502299797	1502299797	147
2.130900	-0.011719	0.000732	-0.007141	0	-0.0027866	0.9945431	-0.0089359	0	-0.00012708	1.00233459	-0.00961852	0	81	506	-1999032766	-1999032766	147
2.130942	-0.017883	-0.008789	-0.008362	0	-0.0021286	0.9949265	-0.0089912	0	-0.00017285	1.00220108	-0.00927258	0	97	506	-2030939752	-2030939752	147
2.130952	-0.023926	-0.009766	-0.018372	0	-0.0015106	0.9950218	-0.0087147	0	-0.00067639	1.00143695	-0.00868320	0	113	507	-1163316345	-1163316345	147
2.154925	-0.030701	-0.010925	-0.027710	0	-0.0016136	0.9955711	-0.0085239	0	-0.00077629	1.00075579	-0.00862694	0	129	507	-886855540	-886855540	147
2.154937	-0.036011	-0.019470	-0.029846	0	-0.0018215	0.9961624	-0.0084572	0	-0.00065875	1.00042176	-0.00907326	0	145	507	-1794402745	-1794402745	147
2.154993	-0.033569	-0.025940	-0.028320	0	-0.0017509	0.9958954	-0.0085316	0	-0.00109434	1.00010967	-0.00934911	0	161	506	-2136516695	-2136516695	147
2.178902	-0.026367	-0.019653	-0.027344	0	-0.0015984	0.9953175	-0.0088844	0	-0.00175285	1.00003338	-0.00928688	0	177	506	-2090983429	-2090983429	147
2.178912	-0.021179	-0.005554	-0.029724	0	-0.0014019	0.9952736	-0.0092430	0	-0.00213814	1.00077558	-0.00903821	0	193	506	1534016190	1534016190	147
2.178965	-0.016968	0.007202	-0.027161	0	-0.0013409	0.9958820	-0.0094090	0	-0.00246644	1.00197268	-0.00874734	0	209	506	-678709069	-678709069	147
2.202898	-0.013733	0.014221	-0.013367	0	-0.0016499	0.9965954	-0.0093613	0	-0.00242496	1.00263953	-0.00850272	0	225	506	-1401277913	-1401277913	147
2.202908	-0.015137	0.009583	-0.005920	0	-0.0021210	0.9965134	-0.0089607	0	-0.00180292	1.00275660	-0.00833893	0	241	506	1660302264	1660302264	147
2.202918	-0.015015	-0.002380	-0.011169	0	-0.0022888	0.9957924	-0.0085125	0	-0.00129342	1.00272608	-0.00829411	0	1	506	-544508336	-544508336	147
2.226873	-0.007751	-0.005737	-0.013184	0	-0.0019779	0.9958019	-0.0085106	0	-0.00131702	1.00227165	-0.00832415	0	17	507	1489021007	1489021007	147
2.226884	0.002502	-0.005432	-0.014465	0	-0.0014496	0.9965057	-0.0087280	0	-0.00159073	1.00148821	-0.00814462	0	33	507	-480411562	-480411562	147
2.226894	0.010437	-0.014587	-0.021057	0	-0.0012932	0.9963646	-0.0090084	0	-0.00162458	1.00106764	-0.00757408	0	49	507	1346176487	1346176487	147
2.250849	0.004822	-0.015198	-0.017273	0	-0.0016994	0.9955521	-0.0093117	0	-0.00130272	1.00113893	-0.00708365	0	65	507	-1985462723	-1985462723	147
2.250859	-0.013855	0.001587	-0.004883	0	-0.0019169	0.9952774	-0.0091991	0	-0.00091100	1.00162816	-0.00725865	0	81	506	-1365365358	-1365365358	147
2.250869	-0.032104	0.010742	-0.003967	0	-0.0015812	0.9952698	-0.0088634	0	-0.00075316	1.00235105	-0.00771761	0	97	506	-2015663207	-2015663207	147
2.354776	-0.045837	0.004333	-0.013000	0	-0.0013485	0.9953213	-0.0089493	0	-0.00100994	1.00247693	-0.00771928	0	113	506	-1376391087	-1376391087	147
2.354838	-0.051331	-0.009277	-0.019043	0	-0.0016098	0.9959793	-0.0092945	0	-0.00146055	1.00188398	-0.00742626	0	129	506	1681723342	1681723342	147
2.354848	-0.044250	-0.019348	-0.017639	0	-0.0020542	0.9964161	-0.0092812	0	-0.00182915	1.00152278	-0.00718713	0	145	506	-1852410635	-1852410635	147
2.354857	-0.026978	-0.007446	-0.014099	0	-0.0024891	0.9958096	-0.0088615	0	-0.00208592	1.00164509	-0.00702929	0	161	506	-582437942	-582437942	147
2.354890	-0.017456	0.015137	-0.009888	0	-0.0027065	0.9952793	-0.0085201	0	-0.00225616	1.00174785	-0.00707078	0	177	507	-1964731749	-1964731749	147
2.354899	-0.026978	0.019043	0.002625	0	-0.0023403	0.9955406	-0.0085144	0	-0.00246930	1.00154471	-0.00729871	0	193	507	825594513	825594513	147
2.354909	-0.034607	0.012817	0.013550	0	-0.0016346	0.9957237	-0.0086975	0	-0.00257325	1.00095534	-0.00778389	0	209	507	-1965175713	-1965175713	147
2.354918	-0.024780	0.019653	0.009949	0	-0.0013008	0.9956741	-0.0092010	0	-0.00231123	1.00039363	-0.00847125	0	225	507	1533195670	1533195670	147
2.354957	-0.010803	0.030884	-0.001526	0	-0.0015526	0.9959240	-0.0099335	0	-0.00204039	1.00065517	-0.00906014	0	241	507	-1508046602	-1508046602	147
2.354967	-0.004944	0.031372	-0.008667	0	-0.0019150	0.9960918	-0.0100441	0	-0.00207949	1.00167131	-0.00952291	0	1	506	-42696967	-42696967	147
2.354976	-0.001587	0.026672	-0.008057	0	-0.0020161	0.9961357	-0.0093822	0	-0.00199032	1.00240111	-0.00959611	0	17	506	-1756702230	-1756702230	147
2.355008	0.004700	0.022095	-0.011780	0	-0.0020809	0.9964809	-0.0087872	0	-0.00166631	1.00228977	-0.00915432	0	33	506	-2117592970	-2117592970	147
2.355018	0.009705	0.013611	-0.019470	0	-0.0022812	0.9964657	-0.0087471	0	-0.00160742	1.00176525	-0.00863981	0	49	506	944461151	944461151	147
2.403731	0.007690	0.004211	-0.022034	0	-0.0023518	0.9958286	-0.0089817	0	-0.00162458	1.00125885	-0.00809216	0	65	506	-177501799	-177501799	147
2.403742	-0.001770	0.000183	-0.023560	0	-0.0022564	0.9956646	-0.0091305	0	-0.00127745	1.00084686	-0.00767112	0	81	506	-1318317430	-1318317430	147
2.403795	-0.010437	0.000427	-0.020752	0	-0.0022049	0.9960136	-0.0092716	0	-0.00092888	1.00058770	-0.00789070	0	97	507	-722850799	-722850799	147
2.403805	-0.012817	0.005859	-0.006470	0	-0.0021935	0.9958553	-0.0094967	0	-0.00099301	1.00049901	-0.00858617	0	113	507	512521756	512521756	147
2.403814	-0.012573	0.014771	0.007019	0	-0.0023117	0.9957390	-0.0095768	0	-0.00123477	1.00078511	-0.00919843	0	129	507	-139464910	-139464910	147
2.403851	-0.013062	0.021240	-0.001648	0	-0.0024796	0.9962273	-0.0094738	0	-0.00143194	1.00168538	-0.00947070	0	145	507	-2016087465	-2016087465	147
2.427696	-0.013916	0.029053	-0.025879	0	-0.0022373	0.9960651	-0.0094280	0	-0.00159287	1.00253820	-0.00954199	0	161	506	-2121359013	-2121359013	147
2.427706	-0.009583	0.036255	-0.032898	0	-0.0016823	0.9952259	-0.0094395	0	-0.00171804	1.00250578	-0.00945497	0	177	506	-618499246	-618499246	147
2.427716	-0.004944	0.031067	-0.022888	0	-0.0015106	0.9952068	-0.0092659	0	-0.00172305	1.00201201	-0.00891542	0	193	506	976729595	976729595	147
2.451684	-0.011108	0.024353	-0.019104	0	-0.0019245	0.9959164	-0.0088902	0	-0.00134730	1.00187898	-0.00798249	0	209	506	1181466780	1181466780	147
2.451698	-0.016602	0.026855	-0.019592	0	-0.0022850	0.9962463	-0.0085068	0	-0.00085831	1.00213766	-0.00726986	0	225	506	1135776661	1135776661	147
2.451707	-0.011108	0.022522	-0.020935	0	-0.0023403	0.9960709	-0.0084057	0	-0.00089693	1.00243115	-0.00719714	0	241	506	1104128535	1104128535	147
2.475646	-0.007996	0.002502	-0.019409	0	-0.0023994	0.9958267	-0.0086842	0	-0.00159264	1.00257325	-0.00756621	0	1	507	677226523	677226523	147
2.475656	-0.013245	-0.017456	-0.011230	0	-0.0024185	0.9955444	-0.0090027	0	-0.00238538	1.00262737	-0.00817513	0	17	507	-143378012	-143378012	147
2.475665	-0.013367	-0.015625	-0.012390	0	-0.0022945	0.9951878	-0.0093765	0	-0.00241017	1.00281763	-0.00901675	0	33	507	1724097513	1724097513	147
2.499619	-0.003784	0.004272	-0.020996	0	-0.0021038	0.9949722	-0.0099125	0	-0.00186658	1.00298071	-0.00963426	0	49	507	-1000015119	-1000015119	147
2.499677	0.006104	0.015198	-0.023438	0	-0.0019836	0.9949608	-0.0099602	0	-0.00186229	1.00270343	-0.00944734	0	65	506	-1229423802	-1229423802	147
2.499688	0.010742	0.007690	-0.025208	0	-0.0020809	0.9952869	-0.0094509	0	-0.00215697	1.00237489	-0.00879884	0	81	506	-745609709	-745609709	147
2.523598	0.009460	0.000427	-0.025940	0	-0.0022984	0.9959660	-0.0093021	0	-0.00177336	1.00241494	-0.00863433	0	97	506	477135111	477135111	147
2.523646	0.001526	0.007263	-0.019714	0	-0.0023975	0.9960785	-0.0097618	0	-0.00116634	1.00256515	-0.00899959	0	113	506	865601215	865601215	147
2.523655	-0.006226	0.013245	-0.011658	0	-0.0021801	0.9953842	-0.0099506	0	-0.00123882	1.00266695	-0.00923634	0	129	506	-1257019505	-1257019505	147
2.547575	-0.005920	0.006470	-0.012146	0	-0.0018005	0.9953041	-0.0093346	0	-0.00202823	1.00255680	-0.00917935	0	145	506	472551963	472551963	147
2.547585	-0.001709	-0.000977	-0.020386	0	-0.0017815	0.9959526	-0.0085888	0	-0.00277662	1.00232840	-0.00897884	0	161	507	1943744318	1943744318	147
2.547638	0.002258	-0.005310	-0.021790	0	-0.0022469	0.9958992	-0.0084820	0	-0.00268745	1.00226665	-0.00876737	0	177	507	1602865094	1602865094	147
2.571575	0.002502	-0.008484	-0.018616	0	-0.0027313	0.9954300	-0.0088482	0	-0.00224137	1.00197148	-0.00870585	0	193	507	37719542	37719542	147
2.571585	-0.000183	0.002747	-0.023743	0	-0.0028057	0.9953651	-0.0089664	0	-0.00233412	1.00131345	-0.00869513	0	209	507	52953341	52953341	147
2.571595	0.002869	0.021729	-0.029114	0	-0.0024395	0.9952259	-0.0088768	0	-0.00276184	1.00077248	-0.00868583	0	225	506	230939676	230939676	147
2.595549	0.012634	0.021362	-0.023682	0	-0.0018177	0.9949284	-0.0091400	0	-0.00289345	1.00046921	-0.00899243	0	241	506	-1409958571	-1409958571	147
2.595560	0.018555	0.005981	-0.012390	0	-0.0011444	0.9950180	-0.0094166	0	-0.00241995	1.00045848	-0.00945473	0	1	506	-738233975	-738233975	147
2.595570	0.008789	-0.000732	-0.006104	0	-0.0006828	0.9954433	-0.0094185	0	-0.00158930	1.00078177	-0.00948811	0	17	506	657934390	657934390	147
2.619526	-0.007751	0.010681	-0.009277	0	-0.0006618	0.9956932	-0.0095043	0	-0.00110674	1.00139785	-0.00889683	0	33	505	-966260375	-966260375	147
2.619537	-0.010559	0.029724	-0.015808	0	-0.0010395	0.9956417	-0.0095272	0	-0.00128722	1.00232649	-0.00805116	0	49	506	-1458499592	-1458499592	147
2.619547	-0.001953	0.031433	-0.013672	0	-0.0015869	0.9955082	-0.0094357	0	-0.00161219	1.00308061	-0.00765705	0	65	507	-1988268896	-1988268896	147
2.643530	0.006897	0.010071	-0.003418	0	-0.0019398	0.9952793	-0.0094166	0	-0.00137997	1.00309253	-0.00796795	0	81	507	1106584054	1106584054	147
2.643591	0.011414	-0.009583	-0.004211	0	-0.0018559	0.9951363	-0.0092297	0	-0.00090456	1.00260949	-0.00852227	0	97	507	-1784612218	-1784612218	147
2.643600	0.008728	-0.008789	-0.017151	0	-0.0016575	0.9954376	-0.0089397	0	-0.00126195	1.00239372	-0.00882483	0	113	507	-1906466507	-1906466507	147
2.667472	-0.000061	0.003601	-0.026672	0	-0.0018120	0.9955330	-0.0087624	0	-0.00223160	1.00253749	-0.00899053	0	129	506	-1017913269	-1017913269	147
2.667520	-0.015137	0.016174	-0.031372	0	-0.0021687	0.9951172	-0.0087204	0	-0.00259042	1.00229430	-0.00915265	0	145	506	874020176	874020176	147
2.667529	-0.031860	0.027405	-0.027344	0	-0.0024376	0.9953289	-0.0088921	0	-0.00238562	1.00157237	-0.00892615	0	161	506	1517152018	1517152018	147
2.691474	-0.039124	0.025330	-0.008545	0	-0.0025883	0.9959545	-0.0091572	0	-0.00235653	1.00111103	-0.00843883	0	177	506	-875329937	-875329937	147
2.691486	-0.029724	0.011536	0.008606	0	-0.0024529	0.9955940	-0.0093956	0	-0.00266886	1.00103664	-0.00827503	0	193	506	-1283482930	-1283482930	147
2.691541	-0.013794	0.011719	0.004944	0	-0.0019760	0.9948254	-0.0094585	0	-0.00299907	1.00096798	-0.00842619	0	209	506	-685012033	-685012033	147
2.715449	-0.007812	0.021912	-0.017273	0	-0.0016346	0.9949245	-0.0090084	0	-0.00258112	1.00096941	-0.00867653	0	225	506	-1069543297	-1069543297	147
2.715459	-0.007141	0.021118	-0.036011	0	-0.0019302	0.9954586	-0.0084743	0	-0.00148368	1.00110126	-0.00902867	0	241	507	-1760564880	-1760564880	147
2.715507	-0.004578	0.016357	-0.025879	0	-0.0025234	0.9957981	-0.0084496	0	-0.00092220	1.00134850	-0.00929117	0	1	507	-72660186	-72660186	147
2.739451	-0.003296	0.016296	0.008301	0	-0.0027332	0.9960899	-0.0086708	0	-0.00110888	1.00208402	-0.00929475	0	17	506	1428892137	1428892137	147
2.739462	-0.004578	0.020569	0.035278	0	-0.0026684	0.9960442	-0.0089054	0	-0.00111723	1.00299811	-0.00897241	0	33	507	-903950874	-903950874	147
2.739471	-0.008118	0.027344	0.032593	0	-0.0024414	0.9957867	-0.0090904	0	-0.00072145	1.00311232	-0.00818419	0	49	506	-1095950751	-1095950751	147
2.763449	-0.011353	0.023926	0.003784	0	-0.0020199	0.9959908	-0.0091667	0	-0.00052905	1.00262332	-0.00749278	0	65	506	1041442126	1041442126	147
2.763459	-0.007874	0.005432	-0.020935	0	-0.0017376	0.9961395	-0.0092640	0	-0.00094676	1.00262117	-0.00761533	0	81	506	844706632	844706632	147
2.763468	0.002197	-0.008911	-0.025696	0	-0.0016079	0.9959316	-0.0093002	0	-0.00151396	1.00302196	-0.00798035	0	97	506	-2060745924	-2060745924	147
2.787376	0.007324	-0.000793	-0.025635	0	-0.0016670	0.9960766	-0.0092640	0	-0.00157571	1.00274420	-0.00776315	0	113	506	-153889622	-153889622	147
2.787386	0.005859	0.016968	-0.026184	0	-0.0020523	0.9961205	-0.0093765	0	-0.00148058	1.00183845	-0.00738978	0	129	506	353843236	353843236	147
2.787396	0.010132	0.022461	-0.020386	0	-0.0024414	0.9955807	-0.0093498	0	-0.00175023	1.00140858	-0.00748491	0	145	507	-1563560686	-1563560686	147
2.811363	0.015076	0.016846	-0.017639	0	-0.0023842	0.9953365	-0.0088196	0	-0.00203085	1.00195336	-0.00762010	0	161	507	-545129508	-545129508	147
2.811422	0.002625	0.009888	-0.030762	0	-0.0020809	0.9954128	-0.0083008	0	-0.00215435	1.00278115	-0.00744605	0	177	507	1929002192	1929002192	147
2.811432	-0.016907	0.009216	-0.044800	0	-0.0024223	0.9951267	-0.0082798	0	-0.00257754	1.00287747	-0.00739193	0	193	507	-1578520749	-1578520749	147
2.835338	-0.021484	0.016724	-0.042786	0	-0.0031376	0.9948311	-0.0084820	0	-0.00306153	1.00240040	-0.00763464	0	209	506	-1168040090	-1168040090	147
2.835387	-0.014221	0.023926	-0.033386	0	-0.0028286	0.9948978	-0.0086632	0	-0.00285292	1.00226378	-0.00786018	0	225	506	829129207	829129207	147
2.835396	-0.007874	0.026123	-0.025940	0	-0.0017548	0.9950790	-0.0089664	0	-0.00203228	1.00243306	-0.00795412	0	241	506	829291348	829291348	147
2.859309	-0.010010	0.025146	-0.021057	0	-0.0014572	0.9952049	-0.0094299	0	-0.00108027	1.00231934	-0.00807214	0	1	506	59504900	59504900	147
2.859319	-0.016357	0.020020	-0.016357	0	-0.0019398	0.9952240	-0.0096912	0	-0.00046849	1.00202727	-0.00815988	0	17	506	-1321366621	-1321366621	147
2.859377	-0.023071	0.012939	-0.012939	0	-0.0020943	0.9952869	-0.0093975	0	-0.00051451	1.00199413	-0.00819969	0	33	506	1862525451	1862525451	147
2.883312	-0.031921	0.012390	-0.019714	0	-0.0018215	0.9958649	-0.0088692	0	-0.00061274	1.00236511	-0.00842500	0	49	507	-1351367430	-1351367430	147
2.883323	-0.027954	0.021973	-0.026917	0	-0.0019245	0.9968262	-0.0085621	0	-0.00046253	1.00303483	-0.00876856	0	65	507	1968816593	1968816593	147
2.883332	-0.010986	0.030945	-0.018311	0	-0.0025082	0.9970856	-0.0084896	0	-0.00068331	1.00336266	-0.00887632	0	81	507	413674846	413674846	147
2.907288	-0.010376	0.023682	-0.004272	0	-0.0025959	0.9963856	-0.0086117	0	-0.00106549	1.00265598	-0.00863218	0	97	507	-1685802504	-1685802504	147
2.907298	-0.026794	0.007141	0.001038	0	-0.0019569	0.9954987	-0.0087566	0	-0.00114632	1.00181222	-0.00828481	0	113	506	2066279390	2066279390	147
2.907308	-0.033447	0.005676	-0.004761	0	-0.0018158	0.9948368	-0.0086918	0	-0.00113702	1.00238824	-0.00810862	0	129	506	424135936	424135936	147
2.931262	-0.024231	0.022766	-0.013123	0	-0.0024109	0.9947777	-0.0085754	0	-0.00114393	1.00384784	-0.00805116	0	145	506	-1234716452	-1234716452	147
2.931275	-0.016418	0.034790	-0.010437	0	-0.0026970	0.9953690	-0.0087318	0	-0.00133896	1.00435901	-0.00802159	0	161	506	2140079730	2140079730	147
2.931285	-0.018188	0.027954	0.002747	0	-0.0024548	0.9957542	-0.0091801	0	-0.00162649	1.00342202	-0.00833845	0	177	506	-879116532	-879116532	147
2.955271	-0.021912	0.015381	0.011780	0	-0.0021210	0.9955597	-0.0093040	0	-0.00155735	1.00209761	-0.00894189	0	193	506	2012624782	2012624782	147
2.955340	-0.022827	0.004761	0.005005	0	-0.0019016	0.9952507	-0.0088959	0	-0.00139499	1.00160456	-0.00913000	0	209	507	1527567523	1527567523	147
2.955350	-0.015442	-0.004883	-0.006165	0	-0.0018921	0.9950504	-0.0088043	0	-0.00156307	1.00195551	-0.00871801	0	225	507	596877963	596877963	147
2.979238	0.002747	-0.005127	-0.005432	0	-0.0018997	0.9949913	-0.0090714	0	-0.00205564	1.00225163	-0.00809073	0	241	507	-1039051605	-1039051605	147
2.979287	0.020752	0.001343	-0.004639	0	-0.0015869	0.9949741	-0.0089703	0	-0.00274205	1.00215483	-0.00752044	0	1	506	-1525528851	-1525528851	147
2.979297	0.020386	0.004089	-0.014954	0	-0.0013714	0.9949684	-0.0087585	0	-0.00312710	1.00196838	-0.00693822	0	17	506	714331120	714331120	147
3.003213	-0.002686	0.005737	-0.022339	0	-0.0018234	0.9952164	-0.0088043	0	-0.00291085	1.00186229	-0.00640607	0	33	506	-740932920	-740932920	147
3.003223	-0.022522	0.006409	-0.018311	0	-0.0024395	0.9955273	-0.0088406	0	-0.00246263	1.00180793	-0.00634623	0	49	506	-1899095952	-1899095952	147
3.003277	-0.025085	0.000244	-0.011108	0	-0.0025349	0.9955635	-0.0090294	0	-0.00203204	1.00178814	-0.00682783	0	65	506	1557056591	1557056591	147
3.027184	-0.022827	-0.002136	-0.008972	0	-0.0021973	0.9955616	-0.0096264	0	-0.00158954	1.00177574	-0.00752831	0	81	506	-1464198748	-1464198748	147
3.027194	-0.018860	0.009399	-0.014526	0	-0.0018635	0.9958725	-0.0101509	0	-0.00125861	1.00162959	-0.00807023	0	97	506	1707370059	1707370059	147
3.027242	-0.013367	0.015869	-0.020630	0	-0.0017509	0.9964008	-0.0101109	0	-0.00126338	1.00129819	-0.00802207	0	113	506	2089799885	2089799885	147
3.051162	-0.011353	0.003967	-0.018555	0	-0.0017986	0.9964790	-0.0094910	0	-0.00149155	1.00116444	-0.00755525	0	129	507	898681362	898681362	147
3.051172	-0.010742	-0.008301	-0.009338	0	-0.0019550	0.9957733	-0.0086269	0	-0.00157189	1.00166249	-0.00728178	0	145	507	-476704437	-476704437	147
3.051182	-0.009155	-0.002625	0.002197	0	-0.0021935	0.9951839	-0.0080872	0	-0.00148726	1.00253749	-0.00730777	0	161	507	-125347391	-125347391	147
3.075141	-0.010498	0.010986	0.006653	0	-0.0025921	0.9954109	-0.0081882	0	-0.00149083	1.00330210	-0.00728130	0	177	507	1221750881	1221750881	147
3.075151	-0.008667	0.016113	-0.000610	0	-0.0029736	0.9958630	-0.0085812	0	-0.00159025	1.00414395	-0.00692892	0	193	506	-1275716534	-1275716534	147
3.075161	0.003540	0.014832	-0.011108	0	-0.0027046	0.9961033	-0.0087643	0	-0.00152326	1.00498056	-0.00689936	0	209	506	-966926021	-966926021	147
3.099112	0.007996	0.011292	-0.016479	0	-0.0020981	0.9963970	-0.0085926	0	-0.00136042	1.00501108	-0.00793338	0	225	506	-2109064292	-2109064292	147
3.099123	-0.002563	0.005859	-0.015076	0	-0.0021706	0.9965019	-0.0083466	0	-0.00163436	1.00426769	-0.00903726	0	241	506	2042782076	2042782076	147
3.099132	-0.003052	0.004150	-0.015442	0	-0.0026379	0.9960861	-0.0085754	0	-0.00233865	1.00329804	-0.00893307	0	1	506	1913730288	1913730288	147
3.123110	0.011230	0.014465	-0.022461	0	-0.0024700	0.9958401	-0.0091400	0	-0.00282359	1.00252438	-0.00808978	0	17	506	-1696891227	-1696891227	147
3.123166	0.014771	0.033081	-0.022888	0	-0.0018349	0.9959412	-0.0093365	0	-0.00275469	1.00237370	-0.00764155	0	33	507	1045232699	1045232699	147
3.123176	0.000916	0.037476	-0.019409	0	-0.0016861	0.9956417	-0.0089989	0	-0.00214195	1.00230670	-0.00784945	0	49	507	-800281835	-800281835	147
3.147088	-0.013611	0.021301	-0.028320	0	-0.0019913	0.9953651	-0.0085545	0	-0.00116897	1.00197792	-0.00824094	0	65	507	637697757	637697757	147
3.147138	-0.021240	0.007568	-0.028748	0	-0.0021400	0.9957676	-0.0084381	0	-0.00034809	1.00227022	-0.00831819	0	81	507	1908392916	1908392916	147
3.147147	-0.021912	0.005493	-0.004089	0	-0.0022545	0.9959717	-0.0086975	0	-0.00009537	1.00292826	-0.00805545	0	97	506	-1064181992	-1064181992	147
3.171061	-0.019104	0.008362	0.012085	0	-0.0026131	0.9955673	-0.0090618	0	-0.00041413	1.00278020	-0.00771499	0	113	506	942766003	942766003	147
3.171071	-0.025024	0.018799	-0.001587	0	-0.0029030	0.9954662	-0.0091820	0	-0.00087190	1.00223255	-0.00756741	0	129	506	1803093208	1803093208	147
3.171123	-0.034485	0.031372	-0.023804	0	-0.0028381	0.9956627	-0.0089951	0	-0.00110745	1.00218225	-0.00787807	0	145	506	170625939	170625939	147
3.195063	-0.032593	0.032166	-0.032776	0	-0.0025654	0.9956493	-0.0087605	0	-0.00138927	1.00244594	-0.00863075	0	161	506	-588392787	-588392787	147
3.195073	-0.026550	0.025024	-0.029419	0	-0.0022316	0.9960842	-0.0086212	0	-0.00169015	1.00242710	-0.00944567	0	177	506	-988114984	-988114984	147
3.195083	-0.026367	0.020813	-0.023560	0	-0.0017891	0.9969063	-0.0085545	0	-0.00167179	1.00199604	-0.00977087	0	193	507	-420278755	-420278755	147
3.219039	-0.029846	0.021057	-0.018250	0	-0.0013885	0.9971218	-0.0084095	0	-0.00168681	1.00176620	-0.00953627	0	209	507	-500311586	-500311586	147
3.219049	-0.034424	0.021545	-0.019043	0	-0.0013237	0.9968491	-0.0082664	0	-0.00203276	1.00202298	-0.00930953	0	225	507	-1947751557	-1947751557	147
3.219059	-0.039185	0.010742	-0.033020	0	-0.0016994	0.9964771	-0.0085487	0	-0.00233889	1.00224257	-0.00924945	0	241	507	1236039809	1236039809	147
3.243012	-0.044128	-0.006897	-0.048828	0	-0.0022831	0.9956589	-0.0089722	0	-0.00207043	1.00213504	-0.00917912	0	1	506	78600228	78600228	147
3.243023	-0.048401	-0.008118	-0.047974	0	-0.0026989	0.9947109	-0.0090141	0	-0.00139880	1.00178027	-0.00929594	0	17	506	-154392541	-154392541	147
3.243033	-0.050476	0.002991	-0.031738	0	-0.0028133	0.9945374	-0.0089321	0	-0.00115514	1.00130272	-0.00956631	0	33	506	-576798399	-576798399	147
3.266960	-0.049744	0.012634	-0.012939	0	-0.0026493	0.9948254	-0.0088539	0	-0.00138783	1.00116444	-0.00956964	0	49	505	-2143938966	-2143938966	147
3.267017	-0.043884	0.028870	-0.000916	0	-0.0024185	0.9952908	-0.0086670	0	-0.00151992	1.00178719	-0.00906682	0	65	506	-1338641488	-1338641488	147
3.267027	-0.033386	0.045532	-0.003235	0	-0.0023384	0.9961815	-0.0085411	0	-0.00147438	1.00257802	-0.00817680	0	81	506	-2068512216	-2068512216	147
3.290935	-0.023315	0.043884	-0.017334	0	-0.0023060	0.9965038	-0.0086498	0	-0.00136209	1.00259328	-0.00773859	0	97	507	-190298737	-190298737	147
3.290971	-0.018982	0.029602	-0.033997	0	-0.0023117	0.9957428	-0.0088730	0	-0.00117445	1.00216079	-0.00813031	0	113	507	426822578	426822578	147
3.290981	-0.021362	0.019043	-0.047424	0	-0.0024986	0.9951534	-0.0090809	0	-0.00116563	1.00213337	-0.00832939	0	129	507	69345793	69345793	147
3.314909	-0.033203	0.011292	-0.043213	0	-0.0026474	0.9952469	-0.0093632	0	-0.00163627	1.00259137	-0.00802302	0	145	507	-1856038993	-1856038993	147
3.314920	-0.051453	0.003784	-0.015808	0	-0.0026207	0.9951439	-0.0094318	0	-0.00219798	1.00307631	-0.00779295	0	161	506	-865702777	-865702777	147
3.314977	-0.055115	0.005981	0.006714	0	-0.0029411	0.9949207	-0.0093250	0	-0.00217819	1.00299644	-0.00740957	0	177	506	1244400736	1244400736	147
3.338888	-0.034058	0.012207	0.006409	0	-0.0031776	0.9953976	-0.0095768	0	-0.00183225	1.00242829	-0.00669861	0	193	506	249630393	249630393	147
3.338898	-0.005310	0.007812	0.000977	0	-0.0024872	0.9961567	-0.0097885	0	-0.00175977	1.00198841	-0.00628781	0	209	506	-1424003400	-1424003400	147
3.338947	0.008484	0.003235	-0.000122	0	-0.0017319	0.9962654	-0.0095310	0	-0.00179577	1.00174379	-0.00654912	0	225	506	1269926644	1269926644	147
3.362886	0.003906	0.011780	-0.005981	0	-0.0016441	0.9957714	-0.0094261	0	-0.00168943	1.00148416	-0.00722361	0	241	506	66172125	66172125	147
3.362897	-0.002808	0.015198	-0.016479	0	-0.0016174	0.9954758	-0.0095787	0	-0.00167799	1.00124764	-0.00799823	0	1	506	-64331914	-64331914	147
3.362907	-0.004883	0.006348	-0.024414	0	-0.0014801	0.9954052	-0.0091991	0	-0.00192189	1.00120735	-0.00863194	0	17	507	-702124623	-702124623	147
3.466820	-0.010193	0.011353	-0.026855	0	-0.0015640	0.9951591	-0.0084782	0	-0.00210381	1.00139785	-0.00889206	0	33	507	1483167411	1483167411	147
3.466833	-0.012329	0.031677	-0.022339	0	-0.0017567	0.9953480	-0.0082741	0	-0.00222206	1.00173926	-0.00878382	0	49	507	998536447	998536447	147
3.466842	-0.006104	0.040344	-0.010620	0	-0.0019722	0.9960365	-0.0082684	0	-0.00255680	1.00208974	-0.00856328	0	65	506	1326351868	1326351868	147
3.466901	-0.006409	0.027283	0.002563	0	-0.0021610	0.9964142	-0.0080929	0	-0.00272155	1.00206232	-0.00857425	0	81	506	-324967581	-324967581	147
3.466910	-0.010193	0.005249	0.007202	0	-0.0020142	0.9967709	-0.0082798	0	-0.00268960	1.00165033	-0.00878167	0	97	506	-1936870979	-1936870979	147
3.466920	-0.006775	-0.005249	0.000000	0	-0.0018463	0.9971504	-0.0088825	0	-0.00286865	1.00143504	-0.00882602	0	113	506	-617943209	-617943209	147
3.466929	-0.008179	0.006226	-0.010864	0	-0.0020676	0.9966373	-0.0094547	0	-0.00267887	1.00147009	-0.00874805	0	129	506	-656792012	-656792012	147
3.466968	-0.020386	0.018677	-0.016296	0	-0.0023956	0.9955654	-0.0097618	0	-0.00179434	1.00137591	-0.00874138	0	145	506	415881121	415881121	147
3.466977	-0.032471	0.013977	-0.018311	0	-0.0026894	0.9949265	-0.0099449	0	-0.00118470	1.00113344	-0.00879383	0	161	507	661933150	661933150	147
3.466986	-0.041687	0.011292	-0.024963	0	-0.0028687	0.9947128	-0.0099983	0	-0.00157404	1.00061011	-0.00884175	0	177	507	-1256840243	-1256840243	147
3.466996	-0.051880	0.018555	-0.034363	0	-0.0027084	0.9948673	-0.0095139	0	-0.00254154	1.00008750	-0.00866008	0	193	507	-1325214562	-1325214562	147
3.467034	-0.051392	0.016113	-0.030579	0	-0.0024853	0.9953194	-0.0089073	0	-0.00298190	1.00050998	-0.00844598	0	209	507	550354928	550354928	147
3.467044	-0.033264	0.006531	-0.009094	0	-0.0023899	0.9954090	-0.0088921	0	-0.00249076	1.00152373	-0.00877690	0	225	507	-257753596	-257753596	147
3.515766	-0.019348	0.007141	0.003113	0	-0.0022202	0.9951134	-0.0091438	0	-0.00164676	1.00188160	-0.00923109	0	241	506	-1156818102	-1156818102	147
3.515817	-0.018616	0.014526	-0.011108	0	-0.0019932	0.9949417	-0.0091019	0	-0.00108361	1.00158882	-0.00919795	0	1	506	-1273832591	-1273832591	147
3.515826	-0.012878	0.012634	-0.033875	0	-0.0018101	0.9948521	-0.0088272	0	-0.00128198	1.00120926	-0.00897264	0	17	506	84511567	84511567	147
3.515835	-0.000610	0.000854	-0.044983	0	-0.0017014	0.9950218	-0.0088902	0	-0.00166965	1.00086975	-0.00859141	0	33	506	957917257	957917257	147
3.515845	0.008728	-0.000854	-0.037537	0	-0.0017357	0.9957256	-0.0095081	0	-0.00146508	1.00104904	-0.00808954	0	49	506	601071290	601071290	147
3.515884	0.017883	0.006958	-0.019775	0	-0.0018826	0.9961014	-0.0100193	0	-0.00118947	1.00191426	-0.00810218	0	65	506	-1889382979	-1889382979	147
3.539735	0.023926	0.001709	-0.012207	0	-0.0019684	0.9958477	-0.0097637	0	-0.00117612	1.00227332	-0.00851917	0	81	507	-82174195	-82174195	147
3.539746	0.016052	-0.008545	-0.015137	0	-0.0021744	0.9959259	-0.0091267	0	-0.00094795	1.00163794	-0.00861502	0	97	507	-714187258	-714187258	147
3.539799	0.001465	-0.002441	-0.010803	0	-0.0027466	0.9960861	-0.0086842	0	-0.00061345	1.00127673	-0.00844336	0	113	507	678992102	678992102	147
3.563729	-0.001465	0.015442	-0.000977	0	-0.0031166	0.9957352	-0.0083847	0	-0.00101876	1.00182891	-0.00836539	0	129	507	1626036969	1626036969	147
3.563741	0.000183	0.028320	-0.000366	0	-0.0028954	0.9953823	-0.0084152	0	-0.00203919	1.00283647	-0.00821733	0	145	506	1568544658	1568544658	147
3.563750	-0.007324	0.028870	-0.008606	0	-0.0024986	0.9952583	-0.0088959	0	-0.00250030	1.00368714	-0.00774050	0	161	506	1282982544	1282982544	147
3.587700	-0.017395	0.025940	-0.012085	0	-0.0019550	0.9951153	-0.0092258	0	-0.00201416	1.00347161	-0.00722623	0	177	506	-994934869	-994934869	147
3.587710	-0.023315	0.030334	-0.012878	0	-0.0011806	0.9949226	-0.0092144	0	-0.00102544	1.00215960	-0.00720978	0	193	506	3056285	3056285	147
3.587719	-0.023621	0.034241	-0.021912	0	-0.0008736	0.9945621	-0.0092354	0	-0.00025558	1.00103235	-0.00754380	0	209	506	-1125738808	-1125738808	147
3.611674	-0.017761	0.017944	-0.026306	0	-0.0014668	0.9939861	-0.0092468	0	-0.00032949	1.00076890	-0.00769496	0	225	506	34868554	34868554	147
3.611684	-0.011230	-0.007385	-0.016357	0	-0.0021553	0.9939404	-0.0091095	0	-0.00075412	1.00094032	-0.00771165	0	241	507	665251722	665251722	147
3.611694	-0.010620	-0.006104	-0.004333	0	-0.0023346	0.9948177	-0.0089798	0	-0.00073099	1.00127506	-0.00799036	0	1	507	-539546621	-539546621	147
3.635649	-0.013611	0.014099	0.001343	0	-0.0026035	0.9956913	-0.0088062	0	-0.00059986	1.00192404	-0.00867367	0	17	507	-1559605531	-1559605531	147
3.635704	-0.012329	0.020508	-0.001404	0	-0.0029736	0.9958363	-0.0088043	0	-0.00106645	1.00246620	-0.00952768	0	33	507	987955722	987955722	147
3.635713	-0.008179	0.016663	-0.010864	0	-0.0025864	0.9955406	-0.0093307	0	-0.00189328	1.00234151	-0.01008463	0	49	506	707766263	707766263	147
3.659632	-0.010010	0.022827	-0.021484	0	-0.0017757	0.9952087	-0.0097618	0	-0.00222921	1.00189042	-0.01001334	0	65	506	-348409391	-348409391	147
3.659643	-0.017700	0.036743	-0.027466	0	-0.0015697	0.9948483	-0.0095978	0	-0.00191402	1.00142622	-0.00929022	0	81	506	2136916615	2136916615	147
3.659699	-0.022705	0.043823	-0.023315	0	-0.0020084	0.9948425	-0.0093479	0	-0.00164199	1.00122952	-0.00849724	0	97	506	723796556	723796556	147
3.683599	-0.026672	0.040527	-0.012512	0	-0.0022831	0.9956417	-0.0091858	0	-0.00197268	1.00178552	-0.00833416	0	113	506	1829068789	1829068789	147
3.683609	-0.033691	0.024597	-0.006714	0	-0.0017948	0.9961967	-0.0088940	0	-0.00264335	1.00239730	-0.00863290	0	129	506	479991600	479991600	147
3.683656	-0.031555	0.001282	-0.007996	0	-0.0010643	0.9957371	-0.0087948	0	-0.00291610	1.00215411	-0.00883651	0	145	506	-1103239456	-1103239456	147
3.707542	-0.015808	-0.002930	-0.007385	0	-0.0009041	0.9953308	-0.0090332	0	-0.00250673	1.00141406	-0.00880575	0	161	507	393923237	393923237	147
3.707552	0.000366	0.010193	-0.005066	0	-0.0012493	0.9954491	-0.0090389	0	-0.00193882	1.00093627	-0.00878811	0	177	507	-2093424179	-2093424179	147
3.707562	0.004944	0.013794	-0.010803	0	-0.0017662	0.9957561	-0.0087299	0	-0.00194526	1.00132799	-0.00889874	0	193	507	-903911733	-903911733	147
3.731575	-0.004700	0.012634	-0.018677	0	-0.0023117	0.9963531	-0.0085793	0	-0.00232267	1.00233006	-0.00887179	0	209	507	2122399363	2122399363	147
3.731586	-0.014771	0.018433	-0.010315	0	-0.0027256	0.9966393	-0.0084209	0	-0.00232816	1.00278187	-0.00887632	0	225	506	1608488868	1608488868	147
3.731595	-0.012939	0.024231	0.002625	0	-0.0027161	0.9959316	-0.0082169	0	-0.00196409	1.00256491	-0.00936961	0	241	506	1514269809	1514269809	147
3.755549	-0.009766	0.029114	-0.003235	0	-0.0024872	0.9950962	-0.0084972	0	-0.00156617	1.00247407	-0.00987291	0	1	506	860429059	860429059	147
3.755559	-0.016663	0.031616	-0.017517	0	-0.0027351	0.9948940	-0.0090618	0	-0.00122738	1.00272489	-0.00979209	0	17	506	-1919495997	-1919495997	147
3.755568	-0.025696	0.020752	-0.032043	0	-0.0031815	0.9947071	-0.0092754	0	-0.00108004	1.00286460	-0.00936198	0	33	506	1625315845	1625315845	147
3.779534	-0.027039	0.006531	-0.047791	0	-0.0031815	0.9944630	-0.0092564	0	-0.00128627	1.00243354	-0.00902319	0	49	506	2141875189	2141875189	147
3.779632	-0.025940	0.015442	-0.047485	0	-0.0028648	0.9948692	-0.0094032	0	-0.00154662	1.00208235	-0.00885630	0	65	507	-2027487337	-2027487337	147
3.779642	-0.026978	0.036194	-0.031067	0	-0.0023289	0.9953594	-0.0095863	0	-0.00158477	1.00264716	-0.00862885	0	81	507	-428833306	-428833306	147
3.803528	-0.024170	0.042603	-0.018372	0	-0.0019684	0.9952488	-0.0095406	0	-0.00147152	1.00338507	-0.00847483	0	97	507	1999688823	1999688823	147
3.803576	-0.018433	0.040405	-0.012634	0	-0.0023785	0.9953499	-0.0094719	0	-0.00114417	1.00364971	-0.00876427	0	113	507	313394547	313394547	147
3.803586	-0.013123	0.032043	-0.013245	0	-0.0030155	0.9957676	-0.0096283	0	-0.00087309	1.00396204	-0.00918651	0	129	506	773845041	773845041	147
3.827501	-0.004517	0.012146	-0.019897	0	-0.0027943	0.9955921	-0.0099258	0	-0.00114918	1.00425100	-0.00903726	0	145	506	1590417282	1590417282	147
3.827512	0.005371	-0.004883	-0.022522	0	-0.0017796	0.9952679	-0.0101604	0	-0.00190926	1.00403118	-0.00838947	0	161	506	-721114134	-721114134	147
3.827566	0.007568	-0.006042	-0.020264	0	-0.0012016	0.9955807	-0.0101280	0	-0.00241470	1.00352550	-0.00794530	0	177	506	1282311645	1282311645	147
3.851475	0.001282	0.001831	-0.016724	0	-0.0016747	0.9961090	-0.0098248	0	-0.00219369	1.00331616	-0.00772667	0	193	506	-1873183536	-1873183536	147
3.851486	-0.005127	0.008118	-0.012573	0	-0.0024548	0.9963722	-0.0096264	0	-0.00188279	1.00355411	-0.00751853	0	209	506	-839828405	-839828405	147
3.851535	-0.008789	0.005310	-0.015991	0	-0.0027905	0.9962616	-0.0098133	0	-0.00197363	1.00366259	-0.00802827	0	225	507	1803729770	1803729770	147
3.875449	-0.015259	-0.004700	-0.025757	0	-0.0027714	0.9959641	-0.0099392	0	-0.00202179	1.00323772	-0.00955009	0	241	507	-2041673552	-2041673552	147
3.875459	-0.026123	-0.008911	-0.029419	0	-0.0025921	0.9958916	-0.0095406	0	-0.00173593	1.00232124	-0.01083112	0	1	507	956122281	956122281	147
3.875469	-0.030457	-0.005432	-0.024902	0	-0.0022526	0.9961395	-0.0090065	0	-0.00149727	1.00126266	-0.01078963	0	17	507	479457461	479457461	147
3.899451	-0.025940	0.001526	-0.020630	0	-0.0021172	0.9964447	-0.0086861	0	-0.00164175	1.00084448	-0.00984836	0	33	506	-1404994128	-1404994128	147
3.899462	-0.025940	0.010803	-0.019409	0	-0.0024586	0.9963646	-0.0083103	0	-0.00177264	1.00099993	-0.00917411	0	49	506	-1719745630	-1719745630	147
3.899471	-0.031677	0.015564	-0.016724	0	-0.0027714	0.9959812	-0.0079193	0	-0.00171304	1.00094271	-0.00910950	0	65	505	-331965519	-331965519	147
3.923455	-0.033142	0.015930	-0.014221	0	-0.0027409	0.9958630	-0.0079670	0	-0.00209665	1.00086594	-0.00906038	0	81	506	921613073	921613073	147
3.923465	-0.025208	0.019287	-0.017273	0	-0.0025330	0.9957771	-0.0083981	0	-0.00266933	1.00131893	-0.00893927	0	97	506	-484445294	-484445294	147
3.923475	-0.012512	0.022095	-0.020813	0	-0.0022392	0.9953842	-0.0087872	0	-0.00243545	1.00201035	-0.00904179	0	113	506	898666326	898666326	147
3.947376	0.004150	0.015015	-0.021606	0	-0.0022297	0.9952812	-0.0089436	0	-0.00160503	1.00241113	-0.00903344	0	129	506	-391132492	-391132492	147
3.947436	0.026672	-0.000793	-0.022766	0	-0.0023899	0.9956474	-0.0090790	0	-0.00100732	1.00267434	-0.00858450	0	145	507	-436898677	-436898677	147
3.947445	0.037170	-0.014282	-0.023926	0	-0.0020962	0.9958630	-0.0094929	0	-0.00079751	1.00258803	-0.00832105	0	161	507	-782172474	-782172474	147
3.971341	0.023743	-0.015442	-0.026428	0	-0.0018368	0.9959087	-0.0097542	0	-0.00087667	1.00157070	-0.00904298	0	177	507	1412943346	1412943346	147
3.971353	0.001587	-0.001587	-0.028687	0	-0.0022736	0.9960365	-0.0094433	0	-0.00121999	1.00047660	-0.01026201	0	193	506	689425193	689425193	147
3.971412	-0.013123	0.019531	-0.024536	0	-0.0026894	0.9959545	-0.0089512	0	-0.00169992	1.00045347	-0.01051855	0	209	506	-1792576744	-1792576744	147
3.995327	-0.020325	0.032043	-0.013611	0	-0.0024834	0.9956112	-0.0086079	0	-0.00227261	1.00143313	-0.00946879	0	225	506	-12907548	-12907548	147
3.995337	-0.024658	0.027649	-0.000061	0	-0.0020962	0.9955406	-0.0084896	0	-0.00258899	1.00258636	-0.00826645	0	241	506	-978541400	-978541400	147
3.995392	-0.025452	0.018555	0.004944	0	-0.0021114	0.9959373	-0.0086765	0	-0.00208879	1.00295782	-0.00749469	0	1	506	236914067	236914067	147
4.019335	-0.028992	0.018127	-0.009583	0	-0.0024700	0.9963093	-0.0089645	0	-0.00113177	1.00227022	-0.00712419	0	17	506	1174079965	1174079965	147
4.019345	-0.033386	0.019348	-0.029724	0	-0.0025883	0.9962120	-0.0090179	0	-0.00062037	1.00130177	-0.00729561	0	33	506	1540271164	1540271164	147
4.019367	-0.022339	0.010498	-0.034485	0	-0.0024700	0.9954872	-0.0089493	0	-0.00078917	1.00102901	-0.00772810	0	49	507	361361940	361361940	147
4.043305	-0.010925	0.001953	-0.030334	0	-0.0023956	0.9946175	-0.0091057	0	-0.00156689	1.00157237	-0.00822330	0	65	507	989546177	989546177	147
4.043315	-0.024963	0.006165	-0.024597	0	-0.0022869	0.9944477	-0.0093479	0	-0.00270629	1.00250673	-0.00852752	0	81	507	769343180	769343180	147
4.043337	-0.038635	0.011047	-0.011169	0	-0.0022812	0.9946194	-0.0092812	0	-0.00325418	1.00320506	-0.00813913	0	97	507	-743870252	-743870252	147
4.067281	-0.025085	0.012695	-0.000427	0	-0.0026913	0.9945469	-0.0091610	0	-0.00271916	1.00290179	-0.00753617	0	113	506	1839189108	1839189108	147
4.067291	-0.003784	0.017395	-0.002502	0	-0.0031433	0.9947987	-0.0095291	0	-0.00186944	1.00186300	-0.00767970	0	129	506	-934586668	-934586668	147
4.067313	0.003906	0.017517	-0.003418	0	-0.0029354	0.9954071	-0.0099545	0	-0.00144982	1.00140858	-0.00843263	0	145	506	-1875204038	-1875204038	147
4.091252	-0.003601	0.010071	0.001221	0	-0.0023251	0.9956284	-0.0098782	0	-0.00153923	1.00187349	-0.00887299	0	161	506	658949927	658949927	147
4.091322	-0.016418	0.007629	0.005554	0	-0.0020008	0.9954376	-0.0097771	0	-0.00201941	1.00248957	-0.00868535	0	177	506	-214099175	-214099175	147
4.091332	-0.025146	0.013306	0.009888	0	-0.0020809	0.9953403	-0.0098228	0	-0.00250506	1.00313544	-0.00819039	0	193	506	1094681609	1094681609	147
4.115228	-0.026123	0.015259	0.004578	0	-0.0021610	0.9954910	-0.0097141	0	-0.00263786	1.00369167	-0.00781274	0	209	507	-964185090	-964185090	147
4.115278	-0.018005	0.019714	-0.009644	0	-0.0017338	0.9956741	-0.0095654	0	-0.00260305	1.00348496	-0.00781703	0	225	507	1900304063	1900304063	147
4.115287	-0.004700	0.032349	-0.020264	0	-0.0010242	0.9958172	-0.0092964	0	-0.00246787	1.00280714	-0.00800085	0	241	507	-2112666287	-2112666287	147
4.139205	0.008606	0.031494	-0.026489	0	-0.0007706	0.9958553	-0.0090332	0	-0.00201845	1.00248456	-0.00812459	0	1	507	-735079457	-735079457	147
4.139216	0.012756	0.019348	-0.023743	0	-0.0012245	0.9958687	-0.0091724	0	-0.00145125	1.00248289	-0.00818753	0	17	506	-1947698781	-1947698781	147
4.139268	0.001526	0.022705	-0.013977	0	-0.0019817	0.9962673	-0.0092793	0	-0.00126290	1.00240302	-0.00812721	0	33	506	597688100	597688100	147
4.163181	-0.014343	0.032043	-0.009094	0	-0.0024548	0.9965534	-0.0090466	0	-0.00141120	1.00247264	-0.00801301	0	49	506	-364694503	-364694503	147
4.163204	-0.019226	0.021790	-0.004517	0	-0.0025196	0.9956684	-0.0088177	0	-0.00141692	1.00271106	-0.00801158	0	65	506	121886357	121886357	147
4.163242	-0.008118	0.001160	0.000366	0	-0.0025177	0.9946213	-0.0088978	0	-0.00128388	1.00254464	-0.00813413	0	81	506	1126937512	1126937512	147
4.187156	0.007202	-0.008301	-0.006653	0	-0.0025139	0.9950542	-0.0093212	0	-0.00126004	1.00223136	-0.00843000	0	97	507	-326153504	-326153504	147
4.187166	0.011169	-0.009155	-0.021729	0	-0.0022583	0.9958630	-0.0097733	0	-0.00138330	1.00204229	-0.00878930	0	113	507	2002170132	2002170132	147
4.187188	0.007202	-0.007629	-0.032166	0	-0.0019779	0.9957275	-0.0098324	0	-0.00149751	1.00165057	-0.00894713	0	129	507	863667015	863667015	147
4.211128	0.002441	0.008057	-0.030884	0	-0.0019951	0.9956532	-0.0094280	0	-0.00122380	1.00174928	-0.00921774	0	145	507	1630436622	1630436622	147
4.211139	-0.003174	0.034729	-0.023254	0	-0.0019760	0.9960899	-0.0090771	0	-0.00080490	1.00290608	-0.00987887	0	161	507	510960776	510960776	147
4.211149	-0.003479	0.049805	-0.021912	0	-0.0017395	0.9960575	-0.0089779	0	-0.00100708	1.00398445	-0.01011181	0	177	506	-1245257331	-1245257331	147
4.235134	0.002319	0.048462	-0.020081	0	-0.0017452	0.9957008	-0.0087357	0	-0.00171256	1.00391030	-0.00935459	0	193	506	502873372	502873372	147
4.235207	0.002380	0.042786	-0.014465	0	-0.0022602	0.9956532	-0.0083790	0	-0.00224495	1.00324512	-0.00832343	0	209	506	142037485	142037485	147
4.235216	-0.005249	0.040588	-0.018433	0	-0.0027847	0.9956226	-0.0082645	0	-0.00232792	1.00303483	-0.00800133	0	225	506	-1021639223	-1021639223	147
4.259075	-0.011108	0.036682	-0.022583	0	-0.0028400	0.9954796	-0.0085106	0	-0.00194001	1.00315642	-0.00857496	0	241	506	1693681013	1693681013	147
4.259126	-0.012207	0.025330	-0.012939	0	-0.0025539	0.9954185	-0.0087738	0	-0.00140738	1.00285459	-0.00909066	0	1	506	225126990	225126990	147
4.259135	-0.009949	0.016174	-0.005859	0	-0.0022774	0.9953613	-0.0088062	0	-0.00140548	1.00207710	-0.00890923	0	17	507	-634535867	-634535867	147
4.283050	-0.003113	0.014404	-0.013672	0	-0.0022469	0.9954147	-0.0088806	0	-0.00181866	1.00154305	-0.00854802	0	33	507	-251101815	-251101815	147
4.283060	0.002258	0.011047	-0.025635	0	-0.0024109	0.9957561	-0.0092106	0	-0.00177264	1.00163293	-0.00831842	0	49	507	-809153266	-809153266	147
4.283113	-0.000061	0.004639	-0.029724	0	-0.0024891	0.9956474	-0.0098076	0	-0.00141764	1.00165391	-0.00847936	0	65	507	502490151	502490151	147
4.307049	-0.001709	-0.000610	-0.022339	0	-0.0025349	0.9948101	-0.0102558	0	-0.00143933	1.00136971	-0.00937176	0	81	506	-1456153015	-1456153015	147
4.307060	-0.001770	0.001892	-0.012329	0	-0.0026951	0.9945812	-0.0099716	0	-0.00175905	1.00180173	-0.01018381	0	97	506	1885264550	1885264550	147
4.307108	-0.004944	0.016174	-0.002441	0	-0.0026493	0.9949665	-0.0092716	0	-0.00227046	1.00297189	-0.00998425	0	113	506	1893922941	1893922941	147
4.331029	-0.005066	0.032654	0.007202	0	-0.0021439	0.9950314	-0.0090733	0	-0.00269604	1.00355029	-0.00930285	0	129	506	-2011445159	-2011445159	147
4.331040	-0.007446	0.041077	0.000183	0	-0.0016899	0.9953289	-0.0094662	0	-0.00272036	1.00311923	-0.00916815	0	145	506	-707243827	-707243827	147
4.331049	-0.018921	0.038147	-0.014954	0	-0.0019970	0.9957600	-0.0095539	0	-0.00266814	1.00236678	-0.00950384	0	161	506	1878821838	1878821838	147
4.355001	-0.029907	0.030151	-0.014954	0	-0.0027046	0.9955006	-0.0091839	0	-0.00258207	1.00196695	-0.00960231	0	177	506	617908650	617908650	147
4.355012	-0.029236	0.028870	-0.012024	0	-0.0031967	0.9950581	-0.0087566	0	-0.00259805	1.00207996	-0.00937581	0	193	507	1126937807	1126937807	147
4.355021	-0.015991	0.031860	-0.021912	0	-0.0036278	0.9951687	-0.0082684	0	-0.00296307	1.00258660	-0.00901651	0	209	507	391287626	391287626	147
4.378978	-0.009155	0.031738	-0.027649	0	-0.0037537	0.9954967	-0.0081882	0	-0.00299644	1.00327134	-0.00875354	0	225	507	-264762290	-264762290	147
4.378989	-0.023132	0.034302	-0.015259	0	-0.0033455	0.9954815	-0.0086441	0	-0.00254226	1.00340724	-0.00879264	0	241	507	1414324373	1414324373	147
4.378998	-0.033569	0.038574	-0.002319	0	-0.0029011	0.9952812	-0.0089188	0	-0.00229716	1.00298071	-0.00866485	0	1	506	494131671	494131671	147
4.402975	-0.021545	0.032715	0.001526	0	-0.0026131	0.9951630	-0.0089092	0	-0.00244403	1.00298071	-0.00805831	0	17	506	-1390919597	-1390919597	147
4.403030	-0.011658	0.024231	0.007263	0	-0.0024319	0.9952126	-0.0088196	0	-0.00288272	1.00334811	-0.00751781	0	33	506	1130010434	1130010434	147
4.403039	-0.019287	0.026550	0.009094	0	-0.0024109	0.9954891	-0.0087109	0	-0.00316501	1.00314260	-0.00735497	0	49	506	1457179396	1457179396	147
4.426952	-0.028076	0.027893	-0.005188	0	-0.0024014	0.9956036	-0.0087566	0	-0.00285292	1.00208569	-0.00750303	0	65	506	-282325963	-282325963	147
4.427008	-0.031982	0.016541	-0.019653	0	-0.0022812	0.9954166	-0.0087738	0	-0.00232053	1.00083089	-0.00792789	0	81	506	1280663560	1280663560	147
4.427017	-0.040344	0.005310	-0.017517	0	-0.0020275	0.9955292	-0.0086288	0	-0.00181270	1.00040221	-0.00848055	0	97	507	-1744112291	-1744112291	147
4.450954	-0.053162	0.008545	-0.008484	0	-0.0016422	0.9960880	-0.0085526	0	-0.00147176	1.00133157	-0.00900555	0	113	507	-565541944	-565541944	147
4.450964	-0.056396	0.016235	-0.005005	0	-0.0014915	0.9966774	-0.0085678	0	-0.00178409	1.00296831	-0.00928593	0	129	507	-1144981412	-1144981412	147
4.451020	-0.043091	0.014954	-0.005554	0	-0.0017548	0.9969673	-0.0085735	0	-0.00239968	1.00399780	-0.00933909	0	145	507	-1401055672	-1401055672	147
4.474904	-0.025574	0.008179	-0.009155	0	-0.0019169	0.9967079	-0.0086575	0	-0.00232220	1.00373006	-0.00943375	0	161	506	959938849	959938849	147
4.474914	-0.013794	-0.007019	-0.020020	0	-0.0018520	0.9961662	-0.0088100	0	-0.00178456	1.00257373	-0.00941443	0	177	506	-1176043172	-1176043172	147
4.474962	-0.011292	-0.025208	-0.029236	0	-0.0018425	0.9959049	-0.0089149	0	-0.00174689	1.00151682	-0.00902700	0	193	506	671047292	671047292	147
4.498908	-0.019897	-0.023987	-0.021423	0	-0.0018387	0.9956875	-0.0087147	0	-0.00203776	1.00115991	-0.00857639	0	209	506	-245620922	-245620922	147
4.498921	-0.025024	-0.005920	-0.009277	0	-0.0019646	0.9950962	-0.0079575	0	-0.00219202	1.00145102	-0.00848365	0	225	506	1680480410	1680480410	147
4.498930	-0.018433	0.012268	-0.012573	0	-0.0022507	0.9946289	-0.0075035	0	-0.00227833	1.00202990	-0.00842619	0	241	506	2101763991	2101763991	147
4.651787	-0.016052	0.026184	-0.020142	0	-0.0023575	0.9946728	-0.0081120	0	-0.00212002	1.00251555	-0.00790954	0	1	507	217751336	217751336	147
4.651799	-0.019897	0.023560	-0.018738	0	-0.0023708	0.9949074	-0.0087109	0	-0.00168800	1.00273609	-0.00754714	0	17	507	2140036500	2140036500	147
4.651821	-0.012451	0.004822	-0.019836	0	-0.0024872	0.9949245	-0.0087280	0	-0.00144482	1.00253797	-0.00813818	0	33	507	1029994956	1029994956	147
4.651831	0.002930	-0.009216	-0.029480	0	-0.0023422	0.9947281	-0.0088615	0	-0.00166273	1.00201297	-0.00930214	0	49	507	-1026072194	-1026072194	147
4.651879	0.008606	-0.014954	-0.033081	0	-0.0018578	0.9949455	-0.0091705	0	-0.00212574	1.00175548	-0.01001048	0	65	506	1677091266	1677091266	147
4.651889	0.003296	-0.010315	-0.030823	0	-0.0016365	0.9955330	-0.0093651	0	-0.00238180	1.00192833	-0.00980043	0	81	505	-399208760	-399208760	147
4.651898	-0.002197	0.010010	-0.038818	0	-0.0016594	0.9955902	-0.0093250	0	-0.00212240	1.00197768	-0.00915504	0	97	506	618046108	618046108	147
4.651932	-0.003235	0.030151	-0.052368	0	-0.0016041	0.9953365	-0.0090599	0	-0.00156951	1.00169373	-0.00865364	0	113	506	510109568	510109568	147
4.651941	-0.009888	0.026611	-0.050964	0	-0.0016899	0.9953403	-0.0089455	0	-0.00144577	1.00149202	-0.00831866	0	129	506	675288597	675288597	147
4.651950	-0.025818	0.001465	-0.032471	0	-0.0017776	0.9953346	-0.0092487	0	-0.00184345	1.00165153	-0.00808597	0	145	506	-996058149	-996058149	147
4.651960	-0.034790	-0.017944	-0.015930	0	-0.0015392	0.9953575	-0.0096169	0	-0.00194097	1.00213885	-0.00802350	0	161	507	2139818813	2139818813	147
4.651998	-0.031677	-0.013428	-0.008850	0	-0.0013008	0.9957352	-0.0095940	0	-0.00155520	1.00264454	-0.00803590	0	177	507	1962065736	1962065736	147
4.652007	-0.023865	0.009644	-0.003357	0	-0.0015926	0.9962559	-0.0092010	0	-0.00126410	1.00251698	-0.00799513	0	193	507	-1160230850	-1160230850	147
4.652017	-0.013489	0.035828	0.001099	0	-0.0022583	0.9963036	-0.0088139	0	-0.00122857	1.00189066	-0.00798249	0	209	507	-1860047740	-1860047740	147
4.652050	-0.007019	0.053772	-0.005310	0	-0.0025597	0.9958935	-0.0086155	0	-0.00132871	1.00173640	-0.00821614	0	225	506	1277557070	1277557070	147
4.652059	-0.011353	0.049927	-0.025391	0	-0.0024815	0.9957561	-0.0084095	0	-0.00162172	1.00237060	-0.00858831	0	241	506	478538531	478538531	147
4.652069	-0.018555	0.025757	-0.040527	0	-0.0024567	0.9958973	-0.0081997	0	-0.00195384	1.00343704	-0.00865102	0	1	506	-410854525	-410854525	147
4.652078	-0.018921	0.012573	-0.032410	0	-0.0023861	0.9959450	-0.0082531	0	-0.00205374	1.00446820	-0.00856733	0	17	506	1218350488	1218350488	147
4.652121	-0.014099	0.019653	-0.009888	0	-0.0021610	0.9959373	-0.0084457	0	-0.00212693	1.00490928	-0.00877500	0	33	506	2093806423	2093806423	147
4.675725	-0.008789	0.023682	0.005432	0	-0.0018368	0.9957485	-0.0086040	0	-0.00234461	1.00438094	-0.00890207	0	49	506	-302602774	-302602774	147
4.675737	-0.010132	0.018799	0.003723	0	-0.0016327	0.9954510	-0.0090027	0	-0.00246787	1.00317121	-0.00866365	0	65	507	-1258713933	-1258713933	147
4.675787	-0.017212	0.010864	-0.007812	0	-0.0016842	0.9955540	-0.0093975	0	-0.00236559	1.00229263	-0.00848818	0	81	507	-1019416117	-1019416117	147
4.699738	-0.015076	-0.002319	-0.022095	0	-0.0016937	0.9961071	-0.0092201	0	-0.00225878	1.00229931	-0.00856161	0	97	507	-870214040	-870214040	147
4.699749	-0.003479	-0.010071	-0.040161	0	-0.0015488	0.9964352	-0.0089417	0	-0.00248456	1.00255060	-0.00870204	0	113	507	1508010457	1508010457	147
4.699758	0.002991	0.004089	-0.051636	0	-0.0014191	0.9960461	-0.0090256	0	-0.00272799	1.00235009	-0.00881910	0	129	507	1312711031	1312711031	147
4.723700	0.003601	0.027222	-0.040222	0	-0.0013847	0.9954262	-0.0091362	0	-0.00249982	1.00178623	-0.00882816	0	145	506	2073212859	2073212859	147
4.723710	0.005920	0.026978	-0.014648	0	-0.0015373	0.9953632	-0.0091267	0	-0.00218272	1.00111437	-0.00876498	0	161	506	-420515278	-420515278	147
4.723719	0.001892	0.004639	0.001770	0	-0.0018501	0.9958153	-0.0090199	0	-0.00217104	1.00072503	-0.00870156	0	177	506	-688271844	-688271844	147
4.747674	-0.013489	-0.004456	0.006653	0	-0.0021877	0.9959335	-0.0086422	0	-0.00227284	1.00118423	-0.00836539	0	193	506	1231342079	1231342079	147
4.747685	-0.025757	0.006165	0.007812	0	-0.0023651	0.9953117	-0.0081310	0	-0.00220990	1.00218558	-0.00776482	0	209	506	1087198517	1087198517	147
4.747695	-0.028809	0.014404	0.004883	0	-0.0021534	0.9947643	-0.0081177	0	-0.00194263	1.00306535	-0.00751734	0	225	506	-937045075	-937045075	147
4.771678	-0.025024	0.012939	-0.005249	0	-0.0017319	0.9951744	-0.0087967	0	-0.00182462	1.00387001	-0.00783968	0	241	507	-1740342441	-1740342441	147
4.771736	-0.010925	0.003113	-0.018555	0	-0.0016956	0.9961529	-0.0093765	0	-0.00191808	1.00446653	-0.00845718	0	1	507	1147147525	1147147525	147
4.771745	0.002563	-0.009216	-0.018982	0	-0.0022717	0.9965954	-0.0091743	0	-0.00171971	1.00438690	-0.00925183	0	17	507	1715091516	1715091516	147
4.795625	0.000916	-0.012573	-0.009766	0	-0.0028496	0.9960499	-0.0086708	0	-0.00130630	1.00384879	-0.00986457	0	33	507	-434610739	-434610739	147
4.795673	-0.010315	-0.007446	-0.009460	0	-0.0029240	0.9954624	-0.0084858	0	-0.00142837	1.00317383	-0.00985408	0	49	506	1863916705	1863916705	147
4.795683	-0.023376	0.000732	-0.013916	0	-0.0027828	0.9958649	-0.0084724	0	-0.00231194	1.00223899	-0.00940204	0	65	506	-130075717	-130075717	147
4.819622	-0.023865	0.006165	-0.019104	0	-0.0025520	0.9963264	-0.0083866	0	-0.00340390	1.00136375	-0.00875044	0	81	506	-996654224	-996654224	147
4.819632	-0.004822	0.007812	-0.029114	0	-0.0023174	0.9960918	-0.0083809	0	-0.00412226	1.00101066	-0.00794005	0	97	506	-962971902	-962971902	147
4.819671	0.012451	0.011597	-0.033386	0	-0.0025387	0.9962864	-0.0087242	0	-0.00420713	1.00107193	-0.00749874	0	113	506	1124942543	1124942543	147
4.843590	0.015381	0.011597	-0.026550	0	-0.0029564	0.9966717	-0.0090370	0	-0.00372648	1.00138378	-0.00796366	0	129	506	2078924604	2078924604	147
4.843601	0.007568	0.004272	-0.020569	0	-0.0027561	0.9959278	-0.0088882	0	-0.00311947	1.00185370	-0.00886440	0	145	507	-760918458	-760918458	147
4.843611	-0.001038	-0.002441	-0.022156	0	-0.0022068	0.9950886	-0.0086632	0	-0.00272012	1.00234604	-0.00944376	0	161	507	254843061	254843061	147
4.867563	-0.004578	-0.004822	-0.024841	0	-0.0021782	0.9951534	-0.0085964	0	-0.00238085	1.00283980	-0.00971103	0	177	507	635045413	635045413	147
4.867573	-0.011536	0.002625	-0.021973	0	-0.0025215	0.9951725	-0.0085983	0	-0.00177383	1.00325894	-0.00993085	0	193	507	-470622978	-470622978	147
4.867594	-0.017639	0.011353	-0.020142	0	-0.0025997	0.9951363	-0.0087070	0	-0.00112820	1.00354624	-0.00982714	0	209	506	797819062	797819062	147
4.891544	-0.012268	0.008240	-0.026917	0	-0.0025043	0.9955368	-0.0088692	0	-0.00127459	1.00369239	-0.00926232	0	225	506	1132469297	1132469297	147
4.891568	-0.004456	0.006409	-0.033264	0	-0.0026493	0.9959068	-0.0089149	0	-0.00239229	1.00362563	-0.00893855	0	241	506	-575718705	-575718705	147
4.891577	-0.004761	0.013733	-0.028564	0	-0.0026665	0.9961987	-0.0088463	0	-0.00341153	1.00353694	-0.00931001	0	1	506	971714036	971714036	147
4.915540	-0.008362	0.015137	-0.016479	0	-0.0023098	0.9963741	-0.0090561	0	-0.00325036	1.00334477	-0.00981760	0	17	506	-721998303	-721998303	147
4.915603	-0.006165	0.003967	-0.011292	0	-0.0020046	0.9960003	-0.0095329	0	-0.00211525	1.00254941	-0.00988173	0	33	506	-772839368	-772839368	147
4.915612	-0.004211	-0.003601	-0.020447	0	-0.0017757	0.9956264	-0.0095520	0	-0.00132823	1.00175524	-0.00968385	0	49	507	-497042876	-497042876	147
4.939462	-0.009521	0.007202	-0.030273	0	-0.0017185	0.9957657	-0.0089951	0	-0.00179958	1.00194550	-0.00935245	0	65	507	2120332925	2120332925	147
4.939503	-0.012512	0.024231	-0.031250	0	-0.0019207	0.9957733	-0.0082397	0	-0.00266862	1.00237727	-0.00888133	0	81	507	-2024678936	-2024678936	147
4.939513	-0.012512	0.024414	-0.030334	0	-0.0019226	0.9956799	-0.0073967	0	-0.00264215	1.00221419	-0.00884199	0	97	507	2045017957	2045017957	147
4.963493	-0.020996	0.012756	-0.026489	0	-0.0017471	0.9958839	-0.0070667	0	-0.00210071	1.00209761	-0.00932193	0	113	506	979969524	979969524	147
4.963503	-0.029602	0.014526	-0.019958	0	-0.0018349	0.9958286	-0.0077572	0	-0.00205207	1.00216389	-0.00942421	0	129	506	-1980264340	-1980264340	147
4.963556	-0.023621	0.021484	-0.018250	0	-0.0020027	0.9954834	-0.0087681	0	-0.00242114	1.00198913	-0.00873327	0	145	506	-823461942	-823461942	147
4.987465	-0.015747	0.009705	-0.021484	0	-0.0020065	0.9954109	-0.0094223	0	-0.00253940	1.00207281	-0.00782990	0	161	506	-1483157992	-1483157992	147
4.987475	-0.022461	-0.004028	-0.023621	0	-0.0021076	0.9952850	-0.0097790	0	-0.00221038	1.00280333	-0.00747252	0	177	506	-251758848	-251758848	147
4.987522	-0.032104	0.002380	-0.017517	0	-0.0022602	0.9947796	-0.0100040	0	-0.00196218	1.00355363	-0.00783873	0	193	507	-1808905724	-1808905724	147
5.011471	-0.029114	0.009705	-0.008728	0	-0.0022049	0.9944401	-0.0100632	0	-0.00219893	1.00346637	-0.00832701	0	209	506	1054147668	1054147668	147
5.011484	-0.015076	-0.000061	-0.008911	0	-0.0022469	0.9945240	-0.0096893	0	-0.00239348	1.00252461	-0.00834918	0	225	507	-811609985	-811609985	147
5.011506	0.002869	-0.009155	-0.010193	0	-0.0025997	0.9949760	-0.0091419	0	-0.00215816	1.00161862	-0.00808096	0	241	507	997763291	997763291	147
5.035468	0.008972	-0.003479	-0.005493	0	-0.0029202	0.9956970	-0.0089436	0	-0.00185776	1.00149941	-0.00803089	0	1	507	-1867130015	-1867130015	147
5.035479	-0.006592	0.002014	-0.003723	0	-0.0028572	0.9959126	-0.0088234	0	-0.00154018	1.00212598	-0.00828123	0	17	506	1192551166	1192551166	147
5.035501	-0.024658	-0.002930	-0.005188	0	-0.0025349	0.9954796	-0.0086403	0	-0.00119972	1.00247312	-0.00833893	0	33	506	-1387825150	-1387825150	147
5.059365	-0.032471	-0.007690	-0.003967	0	-0.0024338	0.9954433	-0.0087528	0	-0.00113225	1.00182986	-0.00803494	0	49	506	-1695745185	-1695745185	147
5.059376	-0.040894	-0.007202	-0.002869	0	-0.0025501	0.9958344	-0.0089626	0	-0.00121951	1.00120020	-0.00796938	0	65	506	-1413412268	-1413412268	147
5.059385	-0.043335	-0.007507	-0.004333	0	-0.0025272	0.9957428	-0.0089512	0	-0.00141668	1.00133038	-0.00819087	0	81	506	4195381	4195381	147
5.083363	-0.026855	-0.010315	-0.005981	0	-0.0024014	0.9955082	-0.0090733	0	-0.00198960	1.00142074	-0.00816298	0	97	506	1488560625	1488560625	147
5.083419	-0.008423	-0.010437	-0.010254	0	-0.0024700	0.9955902	-0.0094090	0	-0.00266409	1.00116181	-0.00796604	0	113	507	540188912	540188912	147
5.083429	-0.005981	-0.009766	-0.016907	0	-0.0027275	0.9951897	-0.0095787	0	-0.00299430	1.00109839	-0.00789189	0	129	507	-418086025	-418086025	147
5.107364	-0.012329	-0.014648	-0.018433	0	-0.0028591	0.9945812	-0.0096302	0	-0.00293994	1.00110292	-0.00796962	0	145	507	-650177691	-650177691	147
5.107430	-0.013855	-0.017090	-0.017883	0	-0.0029430	0.9948978	-0.0094547	0	-0.00266099	1.00097942	-0.00811172	0	161	507	-554140783	-554140783	147
5.107440	-0.009949	-0.007629	-0.018921	0	-0.0031185	0.9954510	-0.0089836	0	-0.00271297	1.00120234	-0.00812817	0	177	507	1824452863	1824452863	147
5.131314	-0.013306	0.004761	-0.015137	0	-0.0029774	0.9954891	-0.0089264	0	-0.00340796	1.00190902	-0.00810456	0	193	506	81062796	81062796	147
5.131324	-0.029114	0.012451	-0.009705	0	-0.0024929	0.9956894	-0.0094852	0	-0.00391841	1.00258923	-0.00830841	0	209	506	1183692461	1183692461	147
5.131381	-0.041016	0.019470	-0.009521	0	-0.0019989	0.9961243	-0.0098495	0	-0.00368810	1.00276804	-0.00860906	0	225	506	1383894252	1383894252	147
5.155294	-0.037231	0.023804	-0.014465	0	-0.0013771	0.9962902	-0.0095444	0	-0.00312710	1.00244975	-0.00879145	0	241	506	-2121130344	-2121130344	147
5.155304	-0.029663	0.022583	-0.022827	0	-0.0009708	0.9962997	-0.0089722	0	-0.00240302	1.00216031	-0.00870895	0	1	506	-1152325531	-1152325531	147
5.155351	-0.029358	0.015442	-0.024963	0	-0.0014610	0.9961090	-0.0086803	0	-0.00188899	1.00226688	-0.00816345	0	17	506	-511884189	-511884189	147
5.179264	-0.033508	0.003479	-0.015808	0	-0.0024796	0.9955006	-0.0086632	0	-0.00197625	1.00229859	-0.00739813	0	33	507	-1916906371	-1916906371	147
5.179274	-0.034851	0.000183	-0.008606	0	-0.0031128	0.9949017	-0.0086384	0	-0.00195050	1.00195098	-0.00694799	0	49	507	-542549515	-542549515	147
5.179283	-0.028015	0.008179	-0.008240	0	-0.0028820	0.9946594	-0.0085678	0	-0.00151086	1.00155282	-0.00694323	0	65	507	-652087841	-652087841	147
5.203243	-0.013733	0.019409	-0.005249	0	-0.0021629	0.9946518	-0.0083218	0	-0.00124884	1.00123239	-0.00691533	0	81	507	497171865	497171865	147
5.203253	0.000244	0.027527	-0.004456	0	-0.0018406	0.9949818	-0.0079536	0	-0.00124645	1.00116515	-0.00683737	0	97	506	-1124414819	-1124414819	147
5.203275	0.002869	0.023560	-0.009216	0	-0.0020161	0.9954109	-0.0080910	0	-0.00136042	1.00133777	-0.00732756	0	113	506	-1167018876	-1167018876	147
5.227238	-0.009155	0.015137	-0.009399	0	-0.0019951	0.9951992	-0.0087852	0	-0.00151610	1.00120401	-0.00821829	0	129	506	1454832426	1454832426	147
5.227296	-0.027649	0.011292	-0.010437	0	-0.0018635	0.9948902	-0.0092735	0	-0.00159431	1.00089979	-0.00887132	0	145	506	-104662786	-104662786	147
5.227306	-0.037598	0.006409	-0.020203	0	-0.0020981	0.9952354	-0.0091667	0	-0.00151181	1.00115561	-0.00903606	0	161	506	1700066762	1700066762	147
5.251213	-0.024231	0.003601	-0.025452	0	-0.0021763	0.9953251	-0.0090446	0	-0.00125623	1.00184846	-0.00850248	0	177	507	-996922288	-996922288	147
5.251262	0.001770	0.008423	-0.015564	0	-0.0018501	0.9951439	-0.0093021	0	-0.00128293	1.00233078	-0.00745463	0	193	507	1205047033	1205047033	147
5.251271	0.012939	0.017151	-0.006470	0	-0.0017548	0.9955730	-0.0094357	0	-0.00191092	1.00254798	-0.00678611	0	209	507	-2059058135	-2059058135	147
5.275189	0.001831	0.022461	-0.010681	0	-0.0018539	0.9956417	-0.0094814	0	-0.00259042	1.00264335	-0.00704598	0	225	507	1668987962	1668987962	147
5.275213	-0.017578	0.020691	-0.017334	0	-0.0018177	0.9949665	-0.0097694	0	-0.00250316	1.00272131	-0.00763369	0	241	507	601927563	601927563	147
5.275257	-0.028198	0.018311	-0.020020	0	-0.0018864	0.9950600	-0.0097752	0	-0.00173068	1.00323462	-0.00787711	0	1	506	451071447	451071447	147
5.299169	-0.027222	0.017029	-0.017334	0	-0.0019798	0.9954529	-0.0094223	0	-0.00118399	1.00411510	-0.00780869	0	17	506	-1874090814	-1874090814	147
5.299179	-0.024048	0.011719	-0.009399	0	-0.0016975	0.9947987	-0.0093231	0	-0.00099778	1.00445700	-0.00766516	0	33	506	-1531194486	-1531194486	147
5.299248	-0.016785	0.007629	-0.006836	0	-0.0012913	0.9943638	-0.0093288	0	-0.00087619	1.00430274	-0.00796938	0	49	506	-529738049	-529738049	147
5.323173	-0.005249	0.007141	-0.012024	0	-0.0013485	0.9948483	-0.0090637	0	-0.00128102	1.00452733	-0.00883698	0	65	506	-1417746819	-1417746819	147
5.323184	-0.005859	0.008362	-0.017151	0	-0.0018349	0.9951954	-0.0088215	0	-0.00238681	1.00468326	-0.00920725	0	81	506	1254177127	1254177127	147
5.323205	-0.018005	0.007263	-0.018494	0	-0.0023098	0.9957943	-0.0089550	0	-0.00333405	1.00392270	-0.00855207	0	97	506	101355715	101355715	147
5.347139	-0.023682	-0.005432	-0.016846	0	-0.0025711	0.9968224	-0.0093079	0	-0.00327682	1.00286388	-0.00776672	0	113	507	58464106	58464106	147
5.347162	-0.018555	-0.019348	-0.017212	0	-0.0025177	0.9968128	-0.0096684	0	-0.00259256	1.00220418	-0.00762558	0	129	507	-790778723	-790778723	147
5.347172	-0.014832	-0.020081	-0.018738	0	-0.0020142	0.9958134	-0.0100822	0	-0.00220728	1.00178313	-0.00807261	0	145	507	-443136408	-443136408	147
5.371140	-0.022949	-0.014893	-0.013916	0	-0.0014782	0.9953022	-0.0102825	0	-0.00214338	1.00198007	-0.00864720	0	161	507	1062127515	1062127515	147
5.371163	-0.032166	-0.009155	-0.004822	0	-0.0015640	0.9952526	-0.0100384	0	-0.00195146	1.00275803	-0.00897598	0	177	506	-226652601	-226652601	147
5.371173	-0.027710	-0.004517	-0.002441	0	-0.0020504	0.9951019	-0.0095520	0	-0.00159931	1.00263786	-0.00902295	0	193	506	-215881891	-215881891	147
5.395115	-0.017151	-0.003113	-0.010071	0	-0.0023804	0.9954090	-0.0089893	0	-0.00137615	1.00163746	-0.00898623	0	209	506	1713952282	1713952282	147
5.395171	-0.012634	0.004578	-0.015137	0	-0.0025253	0.9960270	-0.0086174	0	-0.00155282	1.00142813	-0.00918746	0	225	506	-1205198825	-1205198825	147
5.395181	-0.013062	0.013611	-0.009216	0	-0.0024948	0.9960537	-0.0086746	0	-0.00178599	1.00176787	-0.00945544	0	241	506	-2067710631	-2067710631	147
5.419094	-0.014465	0.005188	-0.005005	0	-0.0021629	0.9959335	-0.0088959	0	-0.00149846	1.00143528	-0.00923467	0	1	506	-531069751	-531069751	147
5.419169	-0.012939	-0.008545	-0.011475	0	-0.0016308	0.9961643	-0.0092220	0	-0.00090575	1.00093126	-0.00879598	0	17	507	1621994673	1621994673	147
5.419179	-0.009094	-0.007202	-0.018677	0	-0.0012188	0.9959946	-0.0097141	0	-0.00051785	1.00093365	-0.00879765	0	33	507	-1174388396	-1174388396	147
5.443086	-0.007629	-0.004211	-0.022583	0	-0.0014000	0.9954185	-0.0097942	0	-0.00042367	1.00102377	-0.00905776	0	49	507	-2058833846	-2058833846	147
5.443098	-0.006104	-0.008728	-0.023987	0	-0.0020428	0.9952946	-0.0094872	0	-0.00049829	1.00103354	-0.00915694	0	65	507	-1129757595	-1129757595	147
5.443152	-0.002441	-0.001221	-0.020752	0	-0.0024567	0.9954853	-0.0095081	0	-0.00068069	1.00119710	-0.00917411	0	81	506	-483302689	-483302689	147
5.467065	-0.000427	0.020752	-0.021912	0	-0.0026436	0.9956074	-0.0096283	0	-0.00094700	1.00144863	-0.00912809	0	97	506	892059816	892059816	147
5.467075	-0.008362	0.039429	-0.028809	0	-0.0027542	0.9958630	-0.0093365	0	-0.00121856	1.00162530	-0.00892091	0	113	506	-1587560568	-1587560568	147
5.467123	-0.022461	0.040894	-0.029358	0	-0.0025177	0.9959793	-0.0087204	0	-0.00110769	1.00176883	-0.00868249	0	129	506	1073874263	1073874263	147
5.491036	-0.022705	0.023804	-0.016602	0	-0.0019321	0.9959297	-0.0081329	0	-0.00028062	1.00205851	-0.00854659	0	145	506	1818767949	1818767949	147
5.491047	-0.012390	0.011108	-0.001038	0	-0.0011959	0.9961548	-0.0080204	0	0.00049520	1.00237250	-0.00858521	0	161	506	1290562932	1290562932	147
5.491056	-0.005920	0.017517	-0.005371	0	-0.0007515	0.9960403	-0.0083237	0	0.00038433	1.00243044	-0.00856924	0	177	507	1303202060	1303202060	147
5.515019	-0.000305	0.024719	-0.022888	0	-0.0010090	0.9955425	-0.0086174	0	-0.00026989	1.00249767	-0.00833726	0	193	507	1979279222	1979279222	147
5.515031	0.000549	0.023926	-0.028687	0	-0.0015945	0.9957504	-0.0088291	0	-0.00083995	1.00268650	-0.00840640	0	209	507	-1671913273	-1671913273	147
5.515053	-0.011108	0.024780	-0.022888	0	-0.0019665	0.9962883	-0.0089283	0	-0.00106692	1.00262475	-0.00887775	0	225	507	1438003575	1438003575	147
5.539013	-0.024109	0.025208	-0.013184	0	-0.0020008	0.9959564	-0.0090008	0	-0.00113320	1.00225925	-0.00906563	0	241	506	-1167610393	-1167610393	147
5.539024	-0.025024	0.019531	-0.005371	0	-0.0017262	0.9953403	-0.0091324	0	-0.00136495	1.00164700	-0.00869274	0	1	506	-396755721	-396755721	147
5.539046	-0.019958	0.018005	-0.005127	0	-0.0015907	0.9957466	-0.0089703	0	-0.00175238	1.00113678	-0.00823951	0	17	506	1494287973	1494287973	147
5.562990	-0.014221	0.029907	-0.003601	0	-0.0019417	0.9964237	-0.0085506	0	-0.00217819	1.00116277	-0.00830674	0	33	506	-218287093	-218287093	147
5.563056	-0.001465	0.037109	0.002991	0	-0.0022030	0.9961567	-0.0084438	0	-0.00250483	1.00137997	-0.00864196	0	49	506	1278158166	1278158166	147
5.563065	0.008606	0.028687	0.004028	0	-0.0020657	0.9958057	-0.0088692	0	-0.00245667	1.00178266	-0.00855970	0	65	506	203112549	203112549	147
5.586963	0.003723	0.023560	0.003845	0	-0.0019321	0.9956913	-0.0094261	0	-0.00195670	1.00262547	-0.00833631	0	81	507	1999424159	1999424159	147
5.586973	-0.010315	0.019531	0.004883	0	-0.0018291	0.9948196	-0.0093517	0	-0.00137210	1.00318909	-0.00835252	0	97	507	1365806207	1365806207	147
5.587026	-0.025818	0.003845	-0.005981	0	-0.0015621	0.9941769	-0.0086746	0	-0.00115824	1.00288296	-0.00807476	0	113	507	188724682	188724682	147
5.610963	-0.033997	-0.005188	-0.024414	0	-0.0014896	0.9950924	-0.0083942	0	-0.00140882	1.00216293	-0.00760818	0	129	507	1194053696	1194053696	147
5.610973	-0.028809	0.004700	-0.030273	0	-0.0019360	0.9964161	-0.0088825	0	-0.00171542	1.00180197	-0.00798225	0	145	506	2087513763	2087513763	147
5.611020	-0.023865	0.020081	-0.022156	0	-0.0024166	0.9967461	-0.0095177	0	-0.00169611	1.00207400	-0.00889492	0	161	506	-86014438	-86014438	147
5.634940	-0.030090	0.028809	-0.018555	0	-0.0024357	0.9961929	-0.0097580	0	-0.00164938	1.00255561	-0.00887609	0	177	506	210948732	210948732	147
5.634951	-0.037659	0.029358	-0.022644	0	-0.0023251	0.9955482	-0.0096340	0	-0.00180626	1.00260830	-0.00799704	0	193	506	-1060879432	-1060879432	147
5.634960	-0.041870	0.025330	-0.022339	0	-0.0026646	0.9953060	-0.0095062	0	-0.00186563	1.00222874	-0.00766730	0	209	506	-1465222507	-1465222507	147
5.658919	-0.039368	0.017273	-0.020508	0	-0.0032368	0.9954796	-0.0095921	0	-0.00198269	1.00196004	-0.00806332	0	225	506	1734628986	1734628986	147
5.658930	-0.027588	0.013184	-0.025696	0	-0.0031567	0.9956284	-0.0096245	0	-0.00239515	1.00184393	-0.00819325	0	241	506	-1793883897	-1793883897	147
5.658939	-0.026428	0.024109	-0.031982	0	-0.0025940	0.9953575	-0.0093956	0	-0.00262618	1.00159693	-0.00774670	0	1	507	-1230674445	-1230674445	147
5.707877	-0.041870	0.031616	-0.023315	0	-0.0026417	0.9951935	-0.0093040	0	-0.00249863	1.00121927	-0.00742435	0	17	507	25106974	25106974	147
5.707887	-0.051636	0.016418	-0.000122	0	-0.0028419	0.9956894	-0.0094585	0	-0.00234079	1.00090480	-0.00775766	0	33	507	265568429	265568429	147
5.707897	-0.048645	0.002991	0.013428	0	-0.0021858	0.9959507	-0.0093060	0	-0.00218534	1.00098896	-0.00809765	0	49	506	2068282840	2068282840	147
5.707918	-0.039368	0.015869	0.005554	0	-0.0014820	0.9952793	-0.0087662	0	-0.00208402	1.00167370	-0.00783491	0	65	506	952539244	952539244	147
5.707959	-0.030762	0.038574	-0.004944	0	-0.0014534	0.9947605	-0.0085545	0	-0.00226188	1.00231910	-0.00761914	0	81	506	364624947	364624947	147
5.707968	-0.029114	0.038208	-0.000305	0	-0.0015659	0.9950199	-0.0090542	0	-0.00250030	1.00229454	-0.00789332	0	97	506	1718166576	1718166576	147
5.747823	-0.031982	0.012695	0.012268	0	-0.0016537	0.9955006	-0.0097332	0	-0.00236559	1.00217700	-0.00825334	0	113	506	-1543831528	-1543831528	147
5.747873	-0.032776	-0.005676	0.021790	0	-0.0018196	0.9960995	-0.0098057	0	-0.00230742	1.00220871	-0.00841355	0	129	506	-1217311410	-1217311410	147
5.747882	-0.029724	-0.006897	0.025208	0	-0.0019360	0.9964180	-0.0091839	0	-0.00285244	1.00192761	-0.00839996	0	145	506	-1510022550	-1510022550	147
5.747892	-0.025146	-0.004883	0.023193	0	-0.0019398	0.9961624	-0.0087242	0	-0.00324035	1.00170946	-0.00828314	0	161	507	130295195	130295195	147
5.747901	-0.013855	-0.005371	0.015198	0	-0.0015926	0.9961052	-0.0088959	0	-0.00303650	1.00199890	-0.00816536	0	177	507	-1797576847	-1797576847	147
5.771820	0.005615	-0.009094	-0.000366	0	-0.0009651	0.9962521	-0.0090504	0	-0.00282669	1.00210285	-0.00826192	0	193	507	-588374925	-588374925	147
5.771832	0.010620	-0.008118	-0.014404	0	-0.0008163	0.9961567	-0.0089169	0	-0.00280571	1.00157595	-0.00865054	0	209	507	808871989	808871989	147
5.771841	-0.013062	0.000671	-0.021301	0	-0.0013332	0.9961624	-0.0090866	0	-0.00264263	1.00138164	-0.00899291	0	225	506	1766235599	1766235599	147
5.795795	-0.033691	0.005676	-0.020264	0	-0.0019398	0.9962521	-0.0094795	0	-0.00217152	1.00205398	-0.00875401	0	241	506	517850589	517850589	147
5.795805	-0.026489	0.008057	-0.014587	0	-0.0022907	0.9958439	-0.0096092	0	-0.00175619	1.00259781	-0.00806260	0	1	506	-413521980	-413521980	147
5.795827	-0.015381	0.010132	-0.014832	0	-0.0022278	0.9953213	-0.0097389	0	-0.00156426	1.00248075	-0.00773787	0	17	506	166308780	166308780	147
5.819774	-0.013916	0.004333	-0.018311	0	-0.0018501	0.9954586	-0.0098629	0	-0.00128579	1.00218415	-0.00802970	0	33	506	-1390835263	-1390835263	147
5.819833	-0.010803	0.000122	-0.014587	0	-0.0015011	0.9956284	-0.0094738	0	-0.00103021	1.00173855	-0.00855899	0	49	506	911630024	911630024	147
5.819842	-0.004456	0.005737	-0.005066	0	-0.0013847	0.9954987	-0.0089111	0	-0.00123644	1.00129771	-0.00906157	0	65	507	-911653588	-911653588	147
5.843735	0.002502	0.006348	0.002258	0	-0.0015755	0.9957848	-0.0086937	0	-0.00200772	1.00159979	-0.00924468	0	81	507	-248806108	-248806108	147
5.843746	0.004944	0.000305	0.003052	0	-0.0019112	0.9961796	-0.0085945	0	-0.00280070	1.00246096	-0.00893521	0	97	507	-915171365	-915171365	147
5.843799	-0.000916	0.005615	-0.004822	0	-0.0021629	0.9961872	-0.0086460	0	-0.00288892	1.00286365	-0.00862980	0	113	506	-722912623	-722912623	147
5.867739	-0.004944	0.023315	-0.016602	0	-0.0023994	0.9960728	-0.0090504	0	-0.00224471	1.00225306	-0.00880551	0	129	506	-227255522	-227255522	147
5.867750	-0.001953	0.037048	-0.023010	0	-0.0026226	0.9958839	-0.0093422	0	-0.00158954	1.00098181	-0.00902438	0	145	506	-1966462519	-1966462519	147
5.867797	-0.005066	0.031982	-0.024963	0	-0.0025711	0.9957771	-0.0091877	0	-0.00147414	1.00018835	-0.00871158	0	161	506	884605156	884605156	147
5.891712	-0.019470	0.014954	-0.023560	0	-0.0022697	0.9961472	-0.0088978	0	-0.00153828	1.00047255	-0.00809169	0	177	506	1861714713	1861714713	147
5.891735	-0.028015	0.010864	-0.013916	0	-0.0020733	0.9968395	-0.0088120	0	-0.00140619	1.00125027	-0.00766325	0	193	506	2132357327	2132357327	147
5.891745	-0.024414	0.016968	-0.002319	0	-0.0020695	0.9970570	-0.0087376	0	-0.00148511	1.00191331	-0.00769353	0	209	506	-554860056	-554860056	147
5.915694	-0.016907	0.010071	-0.007568	0	-0.0020809	0.9965305	-0.0083237	0	-0.00186729	1.00212121	-0.00826645	0	225	507	-141452804	-141452804	147
5.915704	-0.006470	-0.002747	-0.030212	0	-0.0019150	0.9961205	-0.0079594	0	-0.00202775	1.00187850	-0.00869155	0	241	507	77135796	77135796	147
5.915726	0.003906	-0.004150	-0.043335	0	-0.0016270	0.9962082	-0.0083752	0	-0.00192833	1.00183392	-0.00812531	0	1	507	10736957	10736957	147
5.939663	0.011780	-0.004578	-0.035706	0	-0.0018520	0.9960918	-0.0093689	0	-0.00186682	1.00208092	-0.00723076	0	17	507	1879873768	1879873768	147
5.939686	0.013489	-0.016113	-0.022827	0	-0.0026722	0.9956303	-0.0099201	0	-0.00182724	1.00200987	-0.00739574	0	33	506	-1653034315	-1653034315	147
5.939695	0.001831	-0.022461	-0.013306	0	-0.0029736	0.9955997	-0.0097218	0	-0.00168347	1.00188684	-0.00871420	0	49	506	-1380935636	-1380935636	147
5.963667	-0.011902	-0.013062	-0.007629	0	-0.0020905	0.9962711	-0.0094662	0	-0.00133204	1.00218272	-0.00986123	0	65	506	-153015396	-153015396	147
5.963723	-0.009399	-0.005066	-0.008118	0	-0.0007210	0.9968662	-0.0094872	0	-0.00096226	1.00242567	-0.01005840	0	81	506	-172096623	-172096623	147
5.963733	0.004089	-0.005676	-0.013550	0	-0.0001011	0.9966602	-0.0095329	0	-0.00093699	1.00249648	-0.00987506	0	97	506	671925512	671925512	147
5.987613	0.007019	-0.007385	-0.022644	0	-0.0006866	0.9958401	-0.0094929	0	-0.00123525	1.00291610	-0.00975204	0	113	507	429882945	429882945	147
5.987663	-0.005676	-0.003174	-0.029297	0	-0.0015984	0.9953156	-0.0092945	0	-0.00171328	1.00370526	-0.00934005	0	129	506	2037715545	2037715545	147
5.987672	-0.016602	0.005066	-0.023010	0	-0.0020332	0.9957218	-0.0090160	0	-0.00221157	1.00392151	-0.00861120	0	145	507	1641296431	1641296431	147
6.011620	-0.018860	0.005127	-0.008545	0	-0.0020485	0.9963150	-0.0089436	0	-0.00239015	1.00293016	-0.00833988	0	161	507	1415635705	1415635705	147
6.011633	-0.020569	-0.000610	0.004028	0	-0.0018559	0.9963589	-0.0091057	0	-0.00204468	1.00201178	-0.00864005	0	177	507	1109405786	1109405786	147
6.011698	-0.027161	0.001831	0.010254	0	-0.0018139	0.9964199	-0.0093975	0	-0.00143814	1.00221229	-0.00864053	0	193	507	-792980344	-792980344	147
6.035589	-0.036499	0.012878	0.005127	0	-0.0022087	0.9967422	-0.0097408	0	-0.00106430	1.00288796	-0.00819659	0	209	506	-213015947	-213015947	147
6.035598	-0.039856	0.018311	-0.005676	0	-0.0027466	0.9966869	-0.0098763	0	-0.00112510	1.00335622	-0.00793719	0	225	506	-1070705317	-1070705317	147
6.035645	-0.031738	0.012634	-0.009949	0	-0.0030785	0.9962463	-0.0096302	0	-0.00146699	1.00326920	-0.00806665	0	241	506	-434503483	-434503483	147
6.059565	-0.015320	0.010010	-0.007751	0	-0.0031204	0.9961109	-0.0092010	0	-0.00195885	1.00278115	-0.00830579	0	1	506	923206914	923206914	147
6.059577	-0.004456	0.016541	-0.003479	0	-0.0030079	0.9961414	-0.0089092	0	-0.00263572	1.00236297	-0.00845003	0	17	506	-2011227178	-2011227178	147
6.059598	-0.006836	0.018005	0.000244	0	-0.0030079	0.9957371	-0.0089874	0	-0.00336266	1.00219297	-0.00861025	0	33	506	-415874078	-415874078	147
6.083542	-0.012939	0.009949	-0.002197	0	-0.0028820	0.9953804	-0.0093822	0	-0.00357890	1.00248408	-0.00883508	0	49	507	227249396	227249396	147
6.083551	-0.016602	0.006653	-0.011108	0	-0.0023823	0.9953632	-0.0096092	0	-0.00295520	1.00290680	-0.00883675	0	65	507	-1077509415	-1077509415	147
6.083573	-0.015198	0.013000	-0.019958	0	-0.0017471	0.9950218	-0.0092735	0	-0.00215840	1.00264502	-0.00849962	0	81	507	-141347490	-141347490	147
6.107541	-0.006897	0.017456	-0.022461	0	-0.0012608	0.9946613	-0.0090008	0	-0.00196147	1.00215721	-0.00848556	0	97	506	706072624	706072624	147
6.107551	-0.001038	0.012085	-0.015991	0	-0.0011024	0.9949741	-0.0093861	0	-0.00217438	1.00266337	-0.00911307	0	113	506	2028315435	2028315435	147
6.107560	-0.006042	0.003113	-0.011902	0	-0.0014305	0.9952488	-0.0096474	0	-0.00230455	1.00363517	-0.00939226	0	129	506	-2043207389	-2043207389	147
6.131489	-0.009949	0.004883	-0.021484	0	-0.0021553	0.9949150	-0.0093174	0	-0.00218487	1.00370049	-0.00907636	0	145	506	18260709	18260709	147
6.131544	-0.002563	0.018860	-0.033386	0	-0.0026951	0.9945965	-0.0091934	0	-0.00193572	1.00335860	-0.00898194	0	161	506	573980628	573980628	147
6.131554	0.002625	0.026001	-0.033325	0	-0.0027752	0.9944477	-0.0095215	0	-0.00197697	1.00330186	-0.00898814	0	177	506	-76503270	-76503270	147
6.155466	-0.001831	0.015747	-0.024658	0	-0.0028400	0.9943962	-0.0096474	0	-0.00233197	1.00287127	-0.00869036	0	193	506	-902974045	-902974045	147
6.155476	-0.007019	0.001221	-0.016296	0	-0.0029564	0.9947033	-0.0093517	0	-0.00256658	1.00235891	-0.00832343	0	209	507	1469456899	1469456899	147
6.155529	-0.010193	0.000427	-0.013306	0	-0.0026875	0.9950047	-0.0093040	0	-0.00266862	1.00246716	-0.00815463	0	225	507	827623937	827623937	147
6.179464	-0.013611	0.010193	-0.011292	0	-0.0021744	0.9950409	-0.0098991	0	-0.00264597	1.00256681	-0.00816846	0	241	507	621029680	621029680	147
6.179474	-0.015381	0.013794	-0.001099	0	-0.0018215	0.9953308	-0.0103321	0	-0.00219226	1.00250697	-0.00796604	0	1	507	668530198	668530198	147
6.179521	-0.014282	0.009338	0.007690	0	-0.0016155	0.9958782	-0.0100479	0	-0.00147009	1.00280428	-0.00749755	0	17	506	2106164103	2106164103	147
6.203466	-0.012817	0.010376	0.002625	0	-0.0017338	0.9961185	-0.0095463	0	-0.00115895	1.00293803	-0.00761604	0	33	506	1261687680	1261687680	147
6.203476	-0.013489	0.016785	-0.007568	0	-0.0021477	0.9961796	-0.0093040	0	-0.00145793	1.00224900	-0.00846505	0	49	506	1672623289	1672623289	147
6.203497	-0.019470	0.014893	-0.012939	0	-0.0023804	0.9962063	-0.0094128	0	-0.00169611	1.00120425	-0.00894880	0	65	506	-1524526179	-1524526179	147
6.227389	-0.032104	0.011780	-0.014343	0	-0.0022812	0.9957161	-0.0096054	0	-0.00147915	1.00069118	-0.00855827	0	81	506	244546284	244546284	147
6.227399	-0.039429	0.016663	-0.012146	0	-0.0019646	0.9949932	-0.0094814	0	-0.00136566	1.00108075	-0.00782061	0	97	506	1292412602	1292412602	147
6.227421	-0.029053	0.017822	-0.009216	0	-0.0017700	0.9948769	-0.0088959	0	-0.00148439	1.00219369	-0.00733614	0	113	507	1469251505	1469251505	147
6.251364	-0.017944	0.012634	-0.011780	0	-0.0017338	0.9950485	-0.0081444	0	-0.00118637	1.00329447	-0.00748444	0	129	507	-1534124149	-1534124149	147
6.251375	-0.025635	0.006470	-0.015564	0	-0.0014706	0.9949245	-0.0078888	0	-0.00070548	1.00340962	-0.00834465	0	145	507	-1825131342	-1825131342	147
6.251397	-0.036926	0.001343	-0.014954	0	-0.0012760	0.9949875	-0.0084496	0	-0.00081372	1.00258183	-0.00943494	0	161	507	-2103063289	-2103063289	147
6.275366	-0.032654	0.005554	-0.010498	0	-0.0014420	0.9953384	-0.0094109	0	-0.00115490	1.00170374	-0.00995636	0	177	506	-934858006	-934858006	147
6.275421	-0.026306	0.015991	-0.004150	0	-0.0016689	0.9953671	-0.0100822	0	-0.00122380	1.00109768	-0.00973630	0	193	506	-996412060	-996412060	147
6.275431	-0.032349	0.017944	0.001404	0	-0.0018311	0.9953613	-0.0100040	0	-0.00154161	1.00074840	-0.00942206	0	209	506	366052180	366052180	147
6.299337	-0.035583	0.012329	0.003418	0	-0.0018024	0.9955864	-0.0095215	0	-0.00213814	1.00076127	-0.00939560	0	225	506	-523445450	-523445450	147
6.299386	-0.026062	0.012451	-0.001404	0	-0.0016022	0.9953594	-0.0093212	0	-0.00216508	1.00087261	-0.00947309	0	241	506	1109577505	1109577505	147
6.299396	-0.012756	0.012878	-0.013855	0	-0.0015106	0.9951534	-0.0093288	0	-0.00140548	1.00114584	-0.00950813	0	1	506	554204863	554204863	147
6.323313	-0.000549	0.000793	-0.027344	0	-0.0014744	0.9955387	-0.0091248	0	-0.00046992	1.00203967	-0.00932455	0	17	507	-1287599537	-1287599537	147
6.323324	-0.000671	-0.007507	-0.033142	0	-0.0015812	0.9954395	-0.0086708	0	-0.00011778	1.00291705	-0.00862432	0	33	507	343744409	343744409	147
6.323376	-0.018677	0.006714	-0.029968	0	-0.0019302	0.9950409	-0.0082893	0	-0.00060654	1.00290537	-0.00773501	0	49	507	550795580	550795580	147
6.347296	-0.036194	0.026611	-0.024170	0	-0.0021381	0.9956112	-0.0081711	0	-0.00147343	1.00251389	-0.00761771	0	65	507	1571257826	1571257826	147
6.347307	-0.036011	0.026978	-0.019226	0	-0.0021114	0.9962826	-0.0080757	0	-0.00210524	1.00243354	-0.00825572	0	81	507	1897210320	1897210320	147
6.347356	-0.022217	0.011902	-0.015930	0	-0.0020332	0.9959393	-0.0080433	0	-0.00227237	1.00241947	-0.00853467	0	97	506	2146075479	2146075479	147
6.371265	-0.016541	-0.003967	-0.020874	0	-0.0021038	0.9955463	-0.0084667	0	-0.00208330	1.00229096	-0.00808358	0	113	506	1440711324	1440711324	147
6.371276	-0.026672	-0.012329	-0.031433	0	-0.0025196	0.9956760	-0.0091209	0	-0.00181675	1.00224280	-0.00776720	0	129	506	48644691	48644691	147
6.371298	-0.033386	-0.011414	-0.033325	0	-0.0029106	0.9954777	-0.0093002	0	-0.00194740	1.00211263	-0.00836396	0	145	506	920413858	920413858	147
6.395266	-0.027283	-0.008423	-0.023926	0	-0.0028744	0.9951725	-0.0089417	0	-0.00257230	1.00182009	-0.00941563	0	161	506	-1296657633	-1296657633	147
6.395276	-0.020630	-0.000610	-0.008179	0	-0.0027809	0.9955330	-0.0087891	0	-0.00307298	1.00172877	-0.00985503	0	177	506	-558623816	-558623816	147
6.395298	-0.026672	0.012512	0.003235	0	-0.0029945	0.9957714	-0.0091801	0	-0.00272107	1.00167203	-0.00936699	0	193	507	1930048830	1930048830	147
6.419244	-0.039368	0.017334	-0.002502	0	-0.0029964	0.9952583	-0.0094757	0	-0.00175786	1.00122356	-0.00855160	0	209	507	-1197229906	-1197229906	147
6.419301	-0.039978	0.013367	-0.012512	0	-0.0023575	0.9950180	-0.0095501	0	-0.00134993	1.00094461	-0.00822806	0	225	507	-494100952	-494100952	147
6.419310	-0.027527	0.015625	-0.009521	0	-0.0018444	0.9954205	-0.0098915	0	-0.00168681	1.00125408	-0.00851607	0	241	507	-2057008714	-2057008714	147
6.443219	-0.015442	0.025513	-0.004700	0	-0.0021152	0.9955654	-0.0101433	0	-0.00203729	1.00156045	-0.00899196	0	1	506	844738528	844738528	147
6.443267	-0.012695	0.023376	-0.008728	0	-0.0025959	0.9952545	-0.0096569	0	-0.00222826	1.00191784	-0.00942564	0	17	506	-946190334	-946190334	147
6.443277	-0.014648	0.002197	-0.013184	0	-0.0025673	0.9947777	-0.0088749	0	-0.00230837	1.00278187	-0.00941038	0	33	506	2109280289	2109280289	147
6.467168	-0.008362	-0.018921	-0.010803	0	-0.0023117	0.9944401	-0.0087719	0	-0.00220251	1.00332308	-0.00884008	0	49	506	-900094661	-900094661	147
6.467178	-0.001648	-0.027527	-0.003662	0	-0.0023651	0.9947453	-0.0093746	0	-0.00212049	1.00287461	-0.00851369	0	65	506	-131950409	-131950409	147
6.467235	-0.005676	-0.025330	-0.000671	0	-0.0025463	0.9954414	-0.0098648	0	-0.00224924	1.00235057	-0.00882316	0	81	506	2283804	2283804	147
6.491167	-0.006104	-0.013184	-0.005981	0	-0.0024261	0.9956913	-0.0099049	0	-0.00247025	1.00215316	-0.00900364	0	97	507	1005034115	1005034115	147
6.491177	0.002441	0.003479	-0.011780	0	-0.0019054	0.9956245	-0.0099125	0	-0.00243187	1.00184846	-0.00846672	0	113	507	844950117	844950117	147
6.491225	0.001709	0.016785	-0.007690	0	-0.0013561	0.9960766	-0.0099335	0	-0.00181055	1.00183868	-0.00786471	0	129	507	-797464009	-797464009	147
6.515141	-0.009460	0.022705	0.000427	0	-0.0012569	0.9967365	-0.0097542	0	-0.00129294	1.00213599	-0.00783515	0	145	507	-503310905	-503310905	147
6.515164	-0.009399	0.019409	-0.000122	0	-0.0017395	0.9964809	-0.0095234	0	-0.00177789	1.00193048	-0.00823593	0	161	506	524695218	524695218	147
6.515174	0.002869	0.005493	0.001099	0	-0.0024166	0.9955845	-0.0092220	0	-0.00251198	1.00143790	-0.00887346	0	177	506	1051810560	1051810560	147
6.539124	0.007202	-0.007751	0.010803	0	-0.0027733	0.9949875	-0.0089664	0	-0.00246310	1.00151825	-0.00931311	0	193	506	1427105714	1427105714	147
6.539137	-0.000549	-0.003906	0.009888	0	-0.0026054	0.9947491	-0.0092239	0	-0.00212073	1.00228095	-0.00936317	0	209	506	-741967942	-741967942	147
6.539146	-0.006470	0.004211	-0.002502	0	-0.0020809	0.9948864	-0.0097980	0	-0.00201106	1.00308394	-0.00953293	0	225	506	818294418	818294418	147
6.563092	-0.003296	0.001648	-0.008911	0	-0.0019207	0.9952412	-0.0098934	0	-0.00187469	1.00317693	-0.00984716	0	241	506	-264958093	-264958093	147
6.563105	0.000305	-0.003906	-0.007446	0	-0.0023403	0.9953842	-0.0094585	0	-0.00174093	1.00267172	-0.00993681	0	1	507	-1844380632	-1844380632	147
6.563114	-0.008850	-0.006653	-0.007629	0	-0.0024471	0.9957047	-0.0091915	0	-0.00183225	1.00235844	-0.00974059	0	17	507	1755344896	1755344896	147
6.587065	-0.026367	-0.007202	-0.009521	0	-0.0021935	0.9963608	-0.0093822	0	-0.00200248	1.00245214	-0.00948548	0	33	507	-640541811	-640541811	147
6.587125	-0.029175	-0.011963	-0.009949	0	-0.0023136	0.9963894	-0.0097427	0	-0.00205326	1.00246143	-0.00937843	0	49	507	1403839877	1403839877	147
6.587135	-0.019470	-0.014404	-0.018066	0	-0.0026283	0.9957924	-0.0096931	0	-0.00195265	1.00200915	-0.00914454	0	65	506	663468541	663468541	147
6.611043	-0.017761	-0.002563	-0.029358	0	-0.0026379	0.9955406	-0.0091820	0	-0.00181866	1.00153255	-0.00885749	0	81	506	1096253329	1096253329	147
6.611092	-0.014709	0.007751	-0.029236	0	-0.0023460	0.9955254	-0.0088577	0	-0.00182128	1.00190568	-0.00887394	0	97	506	309841646	309841646	147
6.611102	-0.006592	0.007080	-0.023010	0	-0.0021229	0.9953403	-0.0090141	0	-0.00201082	1.00288773	-0.00881052	0	113	506	34581881	34581881	147
6.635041	-0.008728	0.002747	-0.015991	0	-0.0020294	0.9954033	-0.0092869	0	-0.00242543	1.00322175	-0.00827384	0	129	506	1275330345	1275330345	147
6.635051	-0.015686	-0.002808	-0.002563	0	-0.0017414	0.9957352	-0.0094795	0	-0.00281477	1.00261998	-0.00754333	0	145	507	812709937	812709937	147
6.635104	-0.014282	-0.001526	0.008240	0	-0.0013752	0.9957485	-0.0096416	0	-0.00261521	1.00177693	-0.00727916	0	161	506	801787446	801787446	147
6.659016	-0.007324	0.003906	-0.001770	0	-0.0012875	0.9956875	-0.0096397	0	-0.00185513	1.00142002	-0.00785327	0	177	507	-1222931427	-1222931427	147
6.659026	-0.006348	0.005676	-0.024841	0	-0.0014954	0.9958324	-0.0095806	0	-0.00127316	1.00193858	-0.00857162	0	193	507	-2040817467	-2040817467	147
6.659036	-0.006287	0.011841	-0.032837	0	-0.0019093	0.9956703	-0.0097294	0	-0.00115108	1.00279975	-0.00857282	0	209	507	-893421371	-893421371	147
6.682990	0.002136	0.020813	-0.018616	0	-0.0024872	0.9952202	-0.0098133	0	-0.00097346	1.00328398	-0.00834942	0	225	507	-622043915	-622043915	147
6.683000	0.001953	0.021484	-0.003540	0	-0.0029316	0.9948883	-0.0094604	0	-0.00082588	1.00344944	-0.00842738	0	241	506	800159339	800159339	147
6.683009	-0.019775	0.018860	-0.000793	0	-0.0029049	0.9948158	-0.0089264	0	-0.00119400	1.00319433	-0.00843668	0	1	506	-243380883	-243380883	147
6.706964	-0.044250	0.016785	-0.006104	0	-0.0027256	0.9951115	-0.0087795	0	-0.00148106	1.00210452	-0.00864410	0	17	506	-1336604496	-1336604496	147
6.706974	-0.050171	0.013611	-0.016968	0	-0.0028038	0.9954529	-0.0091095	0	-0.00155044	1.00101161	-0.00915074	0	33	506	1182859519	1182859519	147
6.706984	-0.042358	0.018677	-0.030762	0	-0.0028801	0.9952946	-0.0094051	0	-0.00221586	1.00113058	-0.00914168	0	49	506	-1189280956	-1189280956	147
6.755904	-0.031311	0.028992	-0.042419	0	-0.0027256	0.9949169	-0.0093594	0	-0.00305557	1.00202727	-0.00876427	0	65	506	-42509207	-42509207	147
6.755959	-0.021606	0.032166	-0.042114	0	-0.0026550	0.9950142	-0.0091934	0	-0.00333095	1.00252819	-0.00873542	0	81	507	-1622899269	-1622899269	147
