T[s]	GYRO_X	GYRO_Y	GYRO_Z	GyroSts	ACC_X	ACC_Y	ACC_Z	AccSts	INC_X	INC_Y	INC_Z	IncSts	Counter	Latency	RxCRC	CalCRC	DG_ID	
0.103277	0.000183	0.012695	-0.017761	0	0.0003834	-0.0010586	0.9993114	0	0.00006390	0.00366783	1.00060320	0	1	506	-649253103	-649253103	147
0.103303	-0.002869	0.012329	-0.015320	0	0.0003891	-0.0008926	0.9991760	0	-0.00010586	0.00335836	1.00082874	0	17	506	-224808223	-224808223	147
0.127239	0.005493	0.024902	-0.014343	0	0.0001488	-0.0004330	0.9996510	0	-0.00014329	0.00351048	1.00172663	0	33	506	2081526475	2081526475	147
0.127389	0.009583	0.028503	-0.014038	0	-0.0000668	0.0001450	0.9998474	0	0.00001597	0.00392556	1.00213552	0	49	506	-463114231	-463114231	147
0.127399	-0.001465	0.008911	-0.009155	0	-0.0002804	0.0006561	1.0000076	0	-0.00010467	0.00439548	1.00159168	0	65	506	-2089397457	-2089397457	147
0.151218	-0.013550	-0.015320	-0.003113	0	-0.0006275	0.0006771	1.0002575	0	-0.00047708	0.00472808	1.00107121	0	81	506	188965590	188965590	147
0.151228	-0.016724	-0.025940	-0.001831	0	-0.0009003	0.0002594	1.0001183	0	-0.00048542	0.00485563	1.00112510	0	97	507	-1258862220	-1258862220	147
0.151456	-0.014404	-0.027039	-0.007690	0	-0.0009937	0.0001831	0.9997425	0	0.00018787	0.00511265	1.00125170	0	113	507	-70287953	-70287953	147
0.175186	-0.005798	-0.019653	-0.019104	0	-0.0011921	0.0003624	0.9993820	0	0.00097394	0.00547647	1.00119543	0	129	507	1211000687	1211000687	147
0.175196	0.005737	-0.009644	-0.029785	0	-0.0011444	0.0000629	0.9987507	0	0.00095749	0.00550628	1.00119185	0	145	507	634026952	634026952	147
0.175206	0.009155	-0.008850	-0.026184	0	-0.0004520	-0.0005112	0.9983082	0	0.00013924	0.00531268	1.00114179	0	161	506	-569186946	-569186946	147
0.199162	0.008484	-0.010620	-0.009766	0	0.0003052	-0.0006294	0.9986935	0	-0.00069213	0.00518847	1.00100374	0	177	506	-1958923905	-1958923905	147
0.199174	0.013733	-0.009460	-0.002014	0	0.0006313	-0.0002251	0.9988804	0	-0.00088477	0.00496888	1.00098538	0	193	506	2043284763	2043284763	147
0.199183	0.015259	-0.012512	-0.006714	0	0.0005836	0.0000343	0.9981995	0	-0.00038862	0.00464034	1.00083399	0	209	506	1553095842	1553095842	147
0.223161	0.004944	-0.018005	-0.011658	0	0.0003490	-0.0001106	0.9981461	0	0.00028920	0.00462055	1.00052333	0	225	506	1346767251	1346767251	147
0.223172	-0.004639	-0.017212	-0.015808	0	0.0001736	-0.0002899	0.9991112	0	0.00064111	0.00479722	1.00051856	0	241	506	-1435561497	-1435561497	147
0.223181	-0.006348	-0.009644	-0.022461	0	-0.0001392	-0.0003376	0.9993763	0	0.00058317	0.00435591	1.00047255	0	1	507	433966125	433966125	147
0.287143	-0.008911	-0.004517	-0.025757	0	-0.0007057	-0.0002346	0.9989281	0	0.00029469	0.00329018	0.99985504	0	17	507	-1399103960	-1399103960	147
0.287202	-0.012329	-0.007629	-0.019958	0	-0.0007896	-0.0000954	0.9990120	0	-0.00001717	0.00264692	0.99931574	0	33	507	-228415936	-228415936	147
0.287211	-0.006714	-0.009583	-0.013733	0	-0.0000687	-0.0001698	0.9993687	0	-0.00015116	0.00292087	0.99955940	0	49	507	-718715882	-718715882	147
0.287221	0.001160	-0.006836	-0.017822	0	0.0006638	-0.0002041	0.9995441	0	-0.00017095	0.00365543	1.00046158	0	65	506	136942599	136942599	147
0.287254	-0.000610	-0.009583	-0.026184	0	0.0009308	0.0000458	0.9996166	0	-0.00005865	0.00427675	1.00152922	0	81	505	192327361	192327361	147
0.287263	-0.008667	-0.013489	-0.030823	0	0.0008450	0.0002060	0.9992580	0	0.00043988	0.00460744	1.00203729	0	97	506	-1501169972	-1501169972	147
0.287272	-0.019226	-0.004150	-0.030273	0	0.0002975	0.0003262	0.9987755	0	0.00115228	0.00479627	1.00163174	0	113	506	427173360	427173360	147
0.287282	-0.024536	0.015381	-0.026550	0	-0.0005226	0.0006523	0.9989471	0	0.00176406	0.00475073	1.00098372	0	129	506	673920187	673920187	147
0.336120	-0.010803	0.025879	-0.026306	0	-0.0010357	0.0007935	0.9993172	0	0.00192046	0.00418472	1.00082374	0	145	506	1071741716	1071741716	147
0.336131	0.002869	0.016418	-0.026306	0	-0.0010586	0.0006504	0.9991035	0	0.00122046	0.00341606	1.00102377	0	161	507	1531580115	1531580115	147
0.336141	-0.008850	0.002747	-0.023193	0	-0.0009575	0.0004692	0.9988422	0	0.00009680	0.00308561	1.00149536	0	177	507	-1656775706	-1656775706	147
0.336231	-0.022400	0.002502	-0.025085	0	-0.0008926	0.0002556	0.9991627	0	-0.00050116	0.00339866	1.00241089	0	193	507	717893886	717893886	147
0.336241	-0.018250	0.005554	-0.030334	0	-0.0006428	-0.0000572	0.9994183	0	-0.00055909	0.00397611	1.00301123	0	209	506	1250019532	1250019532	147
0.336250	-0.012146	0.003723	-0.026978	0	-0.0002594	-0.0004387	0.9992332	0	-0.00076628	0.00409174	1.00246191	0	225	506	-77886893	-77886893	147
0.400039	-0.007263	0.010742	-0.017578	0	0.0000954	-0.0007286	0.9992580	0	-0.00109339	0.00375485	1.00162888	0	241	506	-1947712868	-1947712868	147
0.400100	-0.006714	0.028687	-0.016052	0	0.0003681	-0.0007229	0.9994316	0	-0.00112677	0.00372124	1.00180840	0	1	506	1634039992	1634039992	147
0.400110	-0.019226	0.033447	-0.019165	0	0.0003433	-0.0002785	0.9993725	0	-0.00108004	0.00400805	1.00258756	0	17	506	1175180623	1175180623	147
0.400119	-0.027588	0.013367	-0.018860	0	-0.0000954	0.0002975	0.9995842	0	-0.00123715	0.00416327	1.00257421	0	33	506	155052251	155052251	147
0.400128	-0.021973	-0.004517	-0.024292	0	-0.0006104	0.0003223	1.0000553	0	-0.00123596	0.00426817	1.00147438	0	49	506	2006227148	2006227148	147
0.400167	-0.020325	-0.001099	-0.034912	0	-0.0008717	-0.0003109	1.0000668	0	-0.00067186	0.00452113	1.00044918	0	65	506	1916192241	1916192241	147
0.400176	-0.028015	0.010376	-0.038269	0	-0.0009155	-0.0009899	0.9998875	0	0.00009227	0.00472260	1.00036669	0	81	507	397162463	397162463	147
0.400186	-0.028687	0.022644	-0.036621	0	-0.0008450	-0.0012760	0.9999924	0	0.00028539	0.00481033	1.00071049	0	97	507	-1124755923	-1124755923	147
0.424003	-0.013550	0.034729	-0.037964	0	-0.0007458	-0.0012302	0.9997387	0	-0.00003862	0.00489092	1.00081968	0	113	507	-1952842621	-1952842621	147
0.424013	0.005432	0.031189	-0.042297	0	-0.0006161	-0.0009823	0.9989853	0	-0.00006652	0.00468588	1.00105810	0	129	507	-1733074747	-1733074747	147
0.424022	0.014038	0.007202	-0.044067	0	-0.0002556	-0.0006180	0.9985790	0	0.00037074	0.00424528	1.00183678	0	145	506	399779632	399779632	147
0.448001	0.011536	-0.020508	-0.035522	0	0.0001965	-0.0002022	0.9986115	0	0.00070453	0.00410485	1.00265527	0	161	506	406568673	406568673	147
0.448056	0.001648	-0.029541	-0.026001	0	0.0002251	0.0002899	0.9987202	0	0.00054622	0.00421906	1.00299001	0	177	506	-2008322419	-2008322419	147
0.448066	-0.011475	-0.018616	-0.030823	0	-0.0002060	0.0007114	0.9990578	0	0.00009322	0.00401306	1.00289893	0	193	506	1751253325	1751253325	147
0.471979	-0.023987	-0.017761	-0.032654	0	-0.0005665	0.0006866	0.9991207	0	-0.00012159	0.00355816	1.00259757	0	209	506	1666024182	1666024182	147
0.472028	-0.031616	-0.027161	-0.016663	0	-0.0003548	0.0002098	0.9985943	0	0.00026083	0.00352192	1.00235868	0	225	506	1728074280	1728074280	147
0.472037	-0.028320	-0.017334	-0.005371	0	0.0002193	-0.0003567	0.9987106	0	0.00105762	0.00387168	1.00248170	0	241	507	731367223	731367223	147
0.495957	-0.020935	0.000916	-0.010193	0	0.0003643	-0.0007515	0.9994755	0	0.00150561	0.00422835	1.00283647	0	1	507	-1321290325	-1321290325	147
0.495969	-0.021545	0.010803	-0.010559	0	-0.0001144	-0.0006237	0.9995785	0	0.00118566	0.00445652	1.00271630	0	17	507	-684624721	-684624721	147
0.496022	-0.028320	0.018433	0.007568	0	-0.0006351	0.0000782	0.9992237	0	0.00047898	0.00420499	1.00225234	0	33	507	667961734	667961734	147
0.519933	-0.026855	0.020264	0.026672	0	-0.0006905	0.0005493	0.9990902	0	-0.00012827	0.00376558	1.00248384	0	49	506	-1976826463	-1976826463	147
0.519958	-0.013123	0.014771	0.022461	0	-0.0004292	0.0003872	0.9989891	0	-0.00026250	0.00410390	1.00283861	0	65	506	-1917281882	-1917281882	147
0.519967	-0.010010	0.007690	0.004150	0	-0.0003910	0.0000610	0.9987144	0	0.00020504	0.00499916	1.00221205	0	81	506	1116239562	1116239562	147
0.543880	-0.021301	-0.000977	-0.008179	0	-0.0004864	-0.0001888	0.9984169	0	0.00082278	0.00533128	1.00164199	0	97	506	762513301	762513301	147
0.543890	-0.023438	-0.010193	-0.014587	0	-0.0004101	-0.0004807	0.9982624	0	0.00102615	0.00492430	1.00188327	0	113	506	103310183	103310183	147
0.543912	-0.011414	-0.010864	-0.013916	0	-0.0003510	-0.0007877	0.9982853	0	0.00074768	0.00471020	1.00186229	0	129	506	-200801780	-200801780	147
0.567886	0.007080	0.000916	-0.008240	0	-0.0003185	-0.0007915	0.9987812	0	0.00053144	0.00518680	1.00139546	0	145	507	-333948086	-333948086	147
0.567899	0.013855	0.004822	-0.006165	0	-0.0001545	-0.0002251	0.9996529	0	0.00069404	0.00545287	1.00136280	0	161	507	1206915316	1206915316	147
0.567909	-0.003052	-0.016113	-0.009705	0	0.0001144	0.0004711	0.9997387	0	0.00063992	0.00492191	1.00158930	0	177	507	2099209513	2099209513	147
0.591854	-0.023376	-0.032471	-0.018982	0	0.0004520	0.0008507	0.9991093	0	0.00034142	0.00442123	1.00143170	0	193	507	1849688491	1849688491	147
0.591921	-0.029907	-0.013855	-0.025757	0	0.0009098	0.0010643	0.9991302	0	0.00047779	0.00456786	1.00114846	0	209	506	1850742997	1850742997	147
0.591930	-0.025574	0.019287	-0.023987	0	0.0013428	0.0008221	0.9995918	0	0.00090122	0.00486279	1.00116372	0	225	506	-1302143772	-1302143772	147
0.615830	-0.016724	0.035278	-0.022339	0	0.0013351	-0.0000267	0.9996719	0	0.00099945	0.00483727	1.00128722	0	241	506	-1910855955	-1910855955	147
0.615879	-0.008301	0.028992	-0.022766	0	0.0008316	-0.0003929	0.9996471	0	0.00066066	0.00477028	1.00132370	0	1	506	670848616	670848616	147
0.615888	-0.000977	0.014771	-0.017944	0	0.0003281	0.0004616	0.9997063	0	0.00015259	0.00472999	1.00129366	0	17	506	-184511485	-184511485	147
0.639783	0.003052	0.000183	-0.010925	0	0.0002346	0.0014687	0.9997692	0	-0.00051904	0.00438118	1.00104046	0	33	506	942120436	942120436	147
0.639794	-0.007385	-0.016296	-0.007080	0	0.0005760	0.0013180	0.9996471	0	-0.00112486	0.00398993	1.00048637	0	49	507	-906934033	-906934033	147
0.639847	-0.030884	-0.027344	-0.006775	0	0.0009537	0.0004807	0.9988880	0	-0.00083351	0.00376368	0.99988151	0	65	507	-461408688	-461408688	147
0.663783	-0.037048	-0.029846	-0.010254	0	0.0009785	-0.0000172	0.9981422	0	0.00018239	0.00329304	0.99950218	0	81	507	-133984337	-133984337	147
0.663794	-0.012268	-0.030212	-0.014954	0	0.0008774	-0.0000820	0.9983025	0	0.00067902	0.00287724	0.99975944	0	97	507	-151100758	-151100758	147
0.663803	0.012390	-0.030701	-0.021606	0	0.0007019	0.0000916	0.9985867	0	0.00063252	0.00299239	1.00072885	0	113	506	1782516445	1782516445	147
0.687755	0.015381	-0.026123	-0.026855	0	0.0001621	0.0001774	0.9985313	0	0.00115299	0.00332928	1.00154853	0	129	506	495623802	495623802	147
0.687765	0.006714	-0.010437	-0.022888	0	-0.0003853	0.0000420	0.9988289	0	0.00205398	0.00366163	1.00171351	0	145	506	-1364544583	-1364544583	147
0.687775	-0.003601	0.013000	-0.017883	0	-0.0004959	-0.0000477	0.9990997	0	0.00198746	0.00380683	1.00153780	0	161	506	356038196	356038196	147
0.711731	-0.008240	0.028992	-0.013855	0	-0.0002365	-0.0001125	0.9987297	0	0.00090313	0.00366020	1.00131392	0	177	506	1838028031	1838028031	147
0.711742	-0.009338	0.024902	-0.003296	0	0.0000572	-0.0002155	0.9984188	0	0.00007200	0.00356293	1.00150919	0	193	506	-514869823	-514869823	147
0.711751	-0.012634	0.006775	-0.002319	0	0.0000000	-0.0003700	0.9988022	0	0.00010014	0.00377750	1.00235319	0	209	507	1445348149	1445348149	147
0.735705	-0.014587	-0.008057	-0.014526	0	-0.0003548	-0.0006390	0.9994659	0	0.00037527	0.00435066	1.00305033	0	225	507	1946006777	1946006777	147
0.735761	-0.021790	-0.007507	-0.016357	0	-0.0005817	-0.0008373	0.9999256	0	0.00027966	0.00498819	1.00266528	0	241	507	-231124206	-231124206	147
0.735771	-0.029297	0.009277	-0.006775	0	-0.0004025	-0.0007915	1.0000839	0	-0.00010943	0.00507283	1.00164866	0	1	507	2056676064	2056676064	147
0.759681	-0.019165	0.027222	-0.004395	0	-0.0000362	-0.0006561	0.9997845	0	-0.00066853	0.00456119	1.00120902	0	17	507	1504725512	1504725512	147
0.759691	-0.008362	0.027710	-0.015442	0	-0.0000076	-0.0006161	0.9991360	0	-0.00114346	0.00414252	1.00138831	0	33	506	562614275	562614275	147
0.759744	-0.012756	0.017944	-0.025513	0	-0.0001564	-0.0005913	0.9985943	0	-0.00123501	0.00402498	1.00166130	0	49	506	-1447107627	-1447107627	147
0.783682	-0.011841	0.007690	-0.015808	0	0.0000706	-0.0004673	0.9983330	0	-0.00109816	0.00380778	1.00202131	0	65	506	-1334256395	-1334256395	147
0.783694	-0.001343	-0.009460	0.003845	0	0.0002117	-0.0000668	0.9983177	0	-0.00074339	0.00370479	1.00198817	0	81	506	150357780	150357780	147
0.783745	-0.000549	-0.024048	0.003723	0	-0.0003242	0.0004482	0.9986839	0	-0.00032353	0.00388145	1.00118375	0	97	506	926586089	926586089	147
0.807655	-0.009338	-0.019470	-0.016968	0	-0.0008526	0.0005646	0.9992161	0	-0.00014853	0.00383377	1.00069952	0	113	506	-1727381455	-1727381455	147
0.807665	-0.013550	-0.002136	-0.034058	0	-0.0005302	0.0004387	0.9993420	0	0.00026727	0.00366163	1.00121760	0	129	507	720766966	720766966	147
0.807674	-0.012390	0.011658	-0.035400	0	0.0001144	0.0003624	0.9994030	0	0.00090671	0.00369811	1.00181770	0	145	507	1585322501	1585322501	147
0.831631	-0.012939	0.014221	-0.024719	0	0.0001850	0.0001602	0.9999752	0	0.00069642	0.00390053	1.00191116	0	161	507	242259914	242259914	147
0.831642	-0.013245	0.005127	-0.015930	0	-0.0000763	-0.0001125	1.0004444	0	-0.00033021	0.00430989	1.00198960	0	177	507	72633928	72633928	147
0.831652	-0.012085	-0.005981	-0.017212	0	-0.0003262	-0.0002232	1.0002480	0	-0.00098133	0.00494528	1.00230789	0	193	506	1754515516	1754515516	147
0.855607	-0.013550	-0.007874	-0.019775	0	-0.0005989	-0.0001564	0.9998722	0	-0.00076604	0.00560141	1.00244546	0	209	506	-817539297	-817539297	147
0.855617	-0.012024	-0.000854	-0.016296	0	-0.0005569	-0.0000610	0.9997482	0	-0.00007796	0.00578976	1.00234580	0	225	506	-1468413838	-1468413838	147
0.855627	-0.004822	0.004028	-0.011414	0	-0.0002632	0.0000114	0.9996891	0	0.00042748	0.00534034	1.00239801	0	241	506	989372775	989372775	147
0.879606	-0.004089	0.003479	-0.009277	0	-0.0001450	0.0001221	0.9997063	0	0.00022578	0.00489163	1.00268292	0	1	506	63943351	63943351	147
0.879660	-0.017029	0.002686	-0.009399	0	-0.0001736	0.0003242	0.9999237	0	-0.00029016	0.00484538	1.00302410	0	17	506	783980369	783980369	147
0.879670	-0.026978	-0.004395	-0.015625	0	-0.0002956	0.0003777	0.9998112	0	-0.00031734	0.00475788	1.00322056	0	33	507	-1638710926	-1638710926	147
0.903578	-0.012146	-0.006897	-0.022949	0	-0.0005169	-0.0000401	0.9990921	0	0.00005245	0.00451803	1.00295210	0	49	507	832037024	832037024	147
0.903588	0.010315	0.002441	-0.018066	0	-0.0006466	-0.0004005	0.9986115	0	0.00027132	0.00438499	1.00220037	0	65	507	-1505733668	-1505733668	147
0.903642	0.007324	-0.001038	-0.006287	0	-0.0003433	-0.0001869	0.9988308	0	0.00027561	0.00426197	1.00154328	0	81	507	-700099564	-700099564	147
0.927560	-0.014038	-0.006775	0.002441	0	0.0002728	0.0000534	0.9989414	0	0.00006557	0.00420833	1.00111508	0	97	506	417394275	417394275	147
0.927570	-0.029724	0.005493	0.003235	0	0.0005760	-0.0000038	0.9988499	0	-0.00038576	0.00424218	1.00086141	0	113	506	140170593	140170593	147
0.927619	-0.031860	0.013184	-0.013611	0	0.0003948	-0.0001278	0.9991665	0	-0.00051761	0.00420761	1.00130343	0	129	506	-1920621367	-1920621367	147
0.951559	-0.020508	0.006409	-0.038330	0	0.0000706	-0.0001583	0.9992962	0	-0.00020576	0.00410748	1.00195956	0	145	506	23685402	23685402	147
0.951570	-0.004456	0.003723	-0.048889	0	-0.0000458	-0.0000458	0.9989033	0	-0.00006247	0.00403142	1.00169134	0	161	506	1618440007	1618440007	147
0.951579	-0.003601	0.015625	-0.046875	0	0.0000572	-0.0000324	0.9986496	0	-0.00012898	0.00419545	1.00086069	0	177	506	-1210398936	-1210398936	147
0.975535	-0.016296	0.030518	-0.041687	0	-0.0001335	-0.0002060	0.9985428	0	-0.00006723	0.00463223	1.00038815	0	193	507	1270119391	1270119391	147
0.975545	-0.018005	0.021545	-0.031128	0	-0.0007553	-0.0003033	0.9986076	0	0.00005889	0.00512648	1.00025702	0	209	507	-1428510700	-1428510700	147
0.975555	-0.013794	-0.008911	-0.015503	0	-0.0012302	-0.0002537	0.9992008	0	0.00001621	0.00533724	1.00029397	0	225	507	-980675083	-980675083	147
0.999504	-0.017517	-0.022461	-0.007385	0	-0.0012054	-0.0002403	0.9997997	0	-0.00004029	0.00500512	1.00043583	0	241	507	-1147031085	-1147031085	147
0.999518	-0.021057	-0.018494	-0.014709	0	-0.0007668	-0.0003853	0.9997520	0	0.00013733	0.00448728	1.00034261	0	1	506	-1130074280	-1130074280	147
0.999528	-0.024109	-0.024048	-0.026550	0	-0.0000248	-0.0006313	0.9994030	0	0.00030231	0.00407767	1.00013781	0	17	506	-2107253343	-2107253343	147
1.023492	-0.020386	-0.023743	-0.026306	0	0.0005703	-0.0007401	0.9991035	0	0.00007010	0.00359297	1.00028706	0	33	506	-75065790	-75065790	147
1.023600	-0.003418	-0.004028	-0.009155	0	0.0006065	-0.0003796	0.9987087	0	-0.00044990	0.00342321	1.00064063	0	49	506	-1744754150	-1744754150	147
1.023610	0.001526	0.010803	0.003479	0	0.0004711	0.0002499	0.9985142	0	-0.00057316	0.00395465	1.00093842	0	65	506	-252104946	-252104946	147
1.047483	-0.013672	0.011108	-0.007019	0	0.0005436	0.0005741	0.9987774	0	0.00013518	0.00460434	1.00139070	0	81	506	-1861695254	-1861695254	147
1.047532	-0.018250	0.007751	-0.019531	0	0.0005302	0.0004330	0.9990501	0	0.00103188	0.00493836	1.00197983	0	97	506	-213588134	-213588134	147
1.047542	-0.004089	0.006592	-0.014893	0	0.0001774	0.0000172	0.9990883	0	0.00132155	0.00484157	1.00211263	0	113	507	1977019771	1977019771	147
1.071493	0.003845	0.004028	-0.004700	0	-0.0001926	-0.0004005	0.9991817	0	0.00109863	0.00402164	1.00156879	0	129	507	410560258	410560258	147
1.071506	-0.001404	-0.006653	-0.004333	0	-0.0003891	-0.0004807	0.9993248	0	0.00071692	0.00297761	1.00100279	0	145	507	296300808	296300808	147
1.071568	-0.002747	-0.016479	-0.017883	0	-0.0006790	-0.0001373	0.9992294	0	0.00031042	0.00287557	1.00088215	0	161	507	-840241408	-840241408	147
1.095412	0.003662	-0.015259	-0.036987	0	-0.0009842	0.0000439	0.9991093	0	0.00016212	0.00373721	1.00095296	0	177	506	-1604480859	-1604480859	147
1.095423	0.003296	-0.012878	-0.045532	0	-0.0009537	-0.0002403	0.9994526	0	0.00030184	0.00448918	1.00106120	0	193	506	868874892	868874892	147
1.095444	-0.008545	-0.019714	-0.033386	0	-0.0004845	-0.0004578	0.9999905	0	0.00036955	0.00473619	1.00130892	0	209	506	-863215017	-863215017	147
1.119383	-0.017273	-0.029907	-0.011536	0	0.0000076	-0.0004272	1.0000553	0	0.00043344	0.00467038	1.00149751	0	225	506	-1970521529	-1970521529	147
1.119394	-0.012390	-0.029419	0.000427	0	-0.0000362	-0.0004501	0.9998035	0	0.00082660	0.00434208	1.00125599	0	241	506	25424807	25424807	147
1.119404	0.003723	-0.010681	-0.007385	0	-0.0004463	-0.0004139	0.9997997	0	0.00119400	0.00414395	1.00073004	0	1	506	-1673058933	-1673058933	147
1.143381	0.018188	0.013611	-0.021240	0	-0.0005875	-0.0002670	0.9998589	0	0.00085258	0.00416255	1.00057244	0	17	507	-830507659	-830507659	147
1.143392	0.014038	0.020508	-0.020447	0	-0.0003262	-0.0003109	0.9997215	0	0.00005460	0.00376511	1.00092530	0	33	507	1158419194	1158419194	147
1.143401	-0.003357	0.010254	-0.016052	0	-0.0001049	-0.0003033	0.9996071	0	-0.00058770	0.00313950	1.00112200	0	49	507	268378572	268378572	147
1.167356	-0.017151	-0.000366	-0.021851	0	-0.0001087	0.0000629	0.9995117	0	-0.00075150	0.00319147	1.00077844	0	65	507	244355036	244355036	147
1.167413	-0.027222	-0.004211	-0.024841	0	-0.0002270	0.0003643	0.9993153	0	-0.00004721	0.00349402	1.00024104	0	81	506	131581412	131581412	147
1.167422	-0.027344	-0.001587	-0.016724	0	-0.0004463	0.0000858	0.9989548	0	0.00087786	0.00316238	0.99987268	0	97	506	1271365136	1271365136	147
1.191356	-0.007751	0.000732	-0.007141	0	-0.0005207	-0.0005856	0.9986687	0	0.00093532	0.00290132	0.99976921	0	113	506	-407713028	-407713028	147
1.191369	0.010620	-0.000488	-0.003540	0	-0.0001144	-0.0008125	0.9989414	0	0.00044394	0.00340724	0.99994016	0	129	506	-1964175047	-1964175047	147
1.191413	0.006287	-0.000244	-0.005920	0	0.0005455	-0.0004158	0.9991875	0	0.00022078	0.00401616	1.00036669	0	145	506	88931059	88931059	147
1.215361	-0.009705	0.002014	-0.013489	0	0.0008926	-0.0002289	0.9988251	0	0.00049520	0.00416589	1.00105357	0	161	506	-1340322128	-1340322128	147
1.215372	-0.016113	0.004456	-0.022339	0	0.0009098	-0.0006218	0.9987068	0	0.00108933	0.00405741	1.00197315	0	177	507	691725585	691725585	147
1.215436	-0.014343	0.005981	-0.029541	0	0.0008869	-0.0008430	0.9992046	0	0.00153208	0.00391054	1.00289273	0	193	507	-78435967	-78435967	147
1.239308	-0.019714	0.007629	-0.037537	0	0.0006332	-0.0005493	0.9993668	0	0.00137639	0.00407195	1.00340223	0	209	507	-1507942647	-1507942647	147
1.239319	-0.024109	0.007690	-0.042908	0	0.0001984	-0.0003109	0.9991703	0	0.00062752	0.00485325	1.00343156	0	225	507	1134585485	1134585485	147
1.239328	-0.013000	0.002441	-0.038513	0	-0.0001526	-0.0004997	0.9995346	0	-0.00009179	0.00547290	1.00319219	0	241	506	541721952	541721952	147
1.263284	-0.003723	-0.002014	-0.029358	0	-0.0003185	-0.0007458	0.9999294	0	0.00000834	0.00511169	1.00252557	0	1	506	-1668508368	-1668508368	147
1.263296	-0.011658	-0.000916	-0.025879	0	-0.0001621	-0.0003796	0.9995689	0	0.00062847	0.00441384	1.00149560	0	17	506	561011842	561011842	147
1.263305	-0.019104	-0.001221	-0.029114	0	-0.0001621	0.0004463	0.9991779	0	0.00085974	0.00439477	1.00095272	0	33	506	-548823892	-548823892	147
1.287261	-0.013611	-0.005859	-0.029053	0	-0.0006771	0.0009346	0.9989891	0	0.00075889	0.00494289	1.00136256	0	49	506	-1199162762	-1199162762	147
1.287272	-0.011169	-0.011658	-0.017212	0	-0.0010338	0.0006809	0.9986763	0	0.00069213	0.00507927	1.00211906	0	65	506	79540218	79540218	147
1.287282	-0.022095	-0.015625	-0.006042	0	-0.0009174	-0.0000572	0.9988918	0	0.00073147	0.00468588	1.00261736	0	81	507	-776316945	-776316945	147
1.311235	-0.033508	-0.014404	-0.006531	0	-0.0008202	-0.0007000	0.9994068	0	0.00102448	0.00456405	1.00284815	0	97	507	-899882222	-899882222	147
1.311298	-0.037415	-0.017578	-0.002319	0	-0.0008411	-0.0010242	0.9992085	0	0.00153065	0.00469446	1.00274181	0	113	507	1641840796	1641840796	147
1.311307	-0.037842	-0.028015	0.010437	0	-0.0008354	-0.0009212	0.9987316	0	0.00198984	0.00456667	1.00201988	0	129	507	127703683	127703683	147
1.335208	-0.035339	-0.019531	0.011353	0	-0.0007191	-0.0003681	0.9986897	0	0.00198865	0.00442910	1.00107503	0	145	506	-793929667	-793929667	147
1.335220	-0.027588	0.007996	-0.002686	0	-0.0002136	0.0001392	0.9987373	0	0.00135016	0.00461960	1.00077152	0	161	506	-744703087	-744703087	147
1.335276	-0.012939	0.019165	-0.013977	0	0.0001564	0.0001526	0.9987946	0	0.00061607	0.00463581	1.00098109	0	177	506	-823623419	-823623419	147
1.359182	0.002075	0.014893	-0.013000	0	-0.0001221	-0.0001965	0.9992714	0	0.00030684	0.00414705	1.00097322	0	193	506	-1677440416	-1677440416	147
1.359193	0.005371	0.009583	-0.005676	0	-0.0003929	-0.0005608	0.9997272	0	0.00014234	0.00360370	1.00078845	0	209	506	-2069684699	-2069684699	147
1.359242	-0.002014	0.003845	0.001404	0	-0.0003223	-0.0008698	0.9996452	0	0.00005770	0.00342202	1.00079632	0	225	506	-1304893717	-1304893717	147
1.408148	-0.003540	0.003540	0.000854	0	-0.0002136	-0.0008926	0.9994755	0	0.00070763	0.00384402	1.00092769	0	241	506	1433994436	1433994436	147
1.408159	0.002014	-0.003845	-0.010620	0	-0.0002689	-0.0005684	0.9993229	0	0.00167084	0.00457358	1.00083256	0	1	507	-643222671	-643222671	147
1.408169	-0.004761	-0.016602	-0.022400	0	-0.0004025	-0.0005054	0.9988480	0	0.00189924	0.00507689	1.00041080	0	17	507	-1473435150	-1473435150	147
1.408224	-0.020691	-0.016052	-0.027588	0	-0.0003414	-0.0008640	0.9986820	0	0.00164008	0.00522876	1.00018430	0	33	507	-242099530	-242099530	147
1.408233	-0.025940	-0.014343	-0.023132	0	-0.0002346	-0.0010986	0.9992981	0	0.00119734	0.00495911	1.00067449	0	49	507	-1488150949	-1488150949	147
1.408243	-0.021118	-0.015259	-0.007141	0	-0.0002365	-0.0009346	0.9997120	0	0.00041342	0.00455761	1.00160241	0	65	506	904100543	904100543	147
1.463097	-0.017334	-0.002075	0.003357	0	-0.0001640	-0.0004387	0.9995422	0	0.00005317	0.00428939	1.00226688	0	81	506	-1591079435	-1591079435	147
1.463108	-0.021118	0.023010	-0.006470	0	-0.0003376	0.0001545	0.9995556	0	0.00071883	0.00423241	1.00226712	0	97	506	-254947319	-254947319	147
1.463118	-0.024902	0.041199	-0.026001	0	-0.0008183	0.0003910	0.9997845	0	0.00139618	0.00467777	1.00195813	0	113	506	-1475905367	-1475905367	147
1.463140	-0.018433	0.044678	-0.035767	0	-0.0010052	0.0002365	0.9998550	0	0.00121665	0.00518250	1.00208211	0	129	506	-1764688932	-1764688932	147
1.463181	-0.012451	0.040833	-0.031372	0	-0.0008793	-0.0000076	0.9998112	0	0.00100970	0.00502944	1.00252724	0	145	506	724733776	724733776	147
1.463190	-0.011475	0.038513	-0.024048	0	-0.0006771	-0.0002117	0.9996929	0	0.00154066	0.00446129	1.00253105	0	161	507	631604104	631604104	147
1.463200	-0.009094	0.033386	-0.018066	0	-0.0004101	-0.0003471	0.9995136	0	0.00208664	0.00425935	1.00201035	0	177	507	-867034249	-867034249	147
1.512059	-0.016602	0.015442	-0.010925	0	-0.0000839	-0.0005302	0.9994411	0	0.00179052	0.00454164	1.00149536	0	193	507	423857207	423857207	147
1.512075	-0.033142	-0.006592	-0.008057	0	0.0002155	-0.0008488	0.9996223	0	0.00096941	0.00464201	1.00131273	0	209	507	-577969618	-577969618	147
1.512085	-0.033264	-0.014038	-0.013489	0	0.0002670	-0.0012569	0.9998112	0	0.00042129	0.00434446	1.00136352	0	225	506	-365995748	-365995748	147
1.512095	-0.017883	-0.001038	-0.022522	0	-0.0001259	-0.0014000	0.9995899	0	0.00027323	0.00406647	1.00133443	0	241	506	1352398970	1352398970	147
1.512147	-0.014587	0.018066	-0.026611	0	-0.0007915	-0.0010338	0.9991932	0	0.00021243	0.00380540	1.00093102	0	1	506	-288337648	-288337648	147
1.512157	-0.020996	0.024170	-0.020020	0	-0.0009708	-0.0005951	0.9988098	0	0.00022078	0.00312829	1.00017118	0	17	506	-1849692156	-1849692156	147
1.536036	-0.017944	0.012939	-0.008545	0	-0.0005054	-0.0004025	0.9984665	0	0.00018287	0.00241756	0.99955583	0	33	506	19702633	19702633	147
1.536048	-0.015564	-0.004333	-0.007996	0	-0.0000191	-0.0002785	0.9989166	0	-0.00042081	0.00248051	0.99958992	0	49	506	-2094735379	-2094735379	147
1.536108	-0.023254	-0.013245	-0.020081	0	0.0001850	-0.0000248	0.9997501	0	-0.00133252	0.00308442	1.00000978	0	65	507	2137272154	2137272154	147
1.560006	-0.031799	-0.016174	-0.029480	0	0.0001392	0.0002346	0.9997883	0	-0.00160813	0.00371909	1.00007463	0	81	507	-957602090	-957602090	147
1.560020	-0.029968	-0.021179	-0.034851	0	0.0002251	0.0002022	0.9997387	0	-0.00105309	0.00431871	0.99974513	0	97	507	490129700	490129700	147
1.560058	-0.013916	-0.021179	-0.039551	0	0.0003014	0.0000477	1.0000534	0	-0.00004649	0.00484872	0.99968767	0	113	507	-181584770	-181584770	147
1.583961	0.000671	-0.009521	-0.031494	0	-0.0001526	-0.0000553	0.9997120	0	0.00093889	0.00523567	1.00027585	0	129	506	708435632	708435632	147
1.583974	0.004639	0.002808	-0.012024	0	-0.0006981	-0.0002747	0.9990978	0	0.00144267	0.00512481	1.00100923	0	145	506	774604255	774604255	147
1.583984	0.006531	-0.001587	0.005310	0	-0.0009270	-0.0004730	0.9993401	0	0.00154901	0.00419068	1.00117207	0	161	506	-1799665985	-1799665985	147
1.607959	0.003174	-0.017517	0.013794	0	-0.0009785	-0.0004749	0.9998074	0	0.00162745	0.00280905	1.00096941	0	177	506	-54672047	-54672047	147
1.607972	-0.004333	-0.014282	0.004211	0	-0.0007706	-0.0004463	0.9996948	0	0.00160503	0.00181437	1.00080228	0	193	506	1090931961	1090931961	147
1.607981	-0.004639	0.010620	-0.016968	0	-0.0002594	-0.0005970	0.9994564	0	0.00127888	0.00176334	1.00053787	0	209	506	-758593941	-758593941	147
1.631962	-0.006653	0.024109	-0.026001	0	0.0002937	-0.0006981	0.9991245	0	0.00080252	0.00248337	1.00042510	0	225	507	-284351042	-284351042	147
1.631974	-0.013611	0.019958	-0.022583	0	0.0005932	-0.0003490	0.9986000	0	0.00044608	0.00347042	1.00077987	0	241	507	-1701709754	-1701709754	147
1.631984	-0.009521	0.012207	-0.017822	0	0.0004673	0.0001125	0.9988079	0	0.00045896	0.00436187	1.00131893	0	1	507	1288051499	1288051499	147
1.655905	-0.002258	0.004272	-0.011597	0	0.0001049	0.0001087	0.9997635	0	0.00087166	0.00487351	1.00177383	0	17	507	-1030126717	-1030126717	147
1.655966	-0.006470	0.008057	-0.013000	0	-0.0002041	-0.0003910	1.0002956	0	0.00117326	0.00502491	1.00198007	0	33	506	1524191407	1524191407	147
1.655975	-0.014404	0.026367	-0.026794	0	-0.0005226	-0.0008354	1.0002537	0	0.00094080	0.00503516	1.00176406	0	49	506	792266526	792266526	147
1.679880	-0.011108	0.036438	-0.031311	0	-0.0008945	-0.0006523	1.0001411	0	0.00061059	0.00472546	1.00138903	0	65	506	-2035239878	-2035239878	147
1.679889	0.006470	0.029724	-0.019653	0	-0.0011044	-0.0002480	0.9997902	0	0.00053549	0.00393152	1.00133801	0	81	506	1399934523	1399934523	147
1.679962	0.014465	0.021362	-0.013794	0	-0.0011139	-0.0001678	0.9991474	0	0.00049901	0.00330853	1.00171304	0	97	506	-1302737422	-1302737422	147
1.703881	-0.003967	0.016602	-0.014160	0	-0.0009174	-0.0002232	0.9989262	0	0.00053215	0.00355577	1.00219464	0	113	506	1477409803	1477409803	147
1.703891	-0.030640	0.010010	-0.012207	0	-0.0003891	-0.0002575	0.9993935	0	0.00047421	0.00432444	1.00238681	0	129	506	609338203	609338203	147
1.703946	-0.044006	0.002319	-0.016663	0	0.0001202	-0.0002728	0.9997978	0	0.00010276	0.00483274	1.00220156	0	145	507	1602521612	1602521612	147
1.727856	-0.039246	0.000916	-0.027283	0	0.0002861	-0.0002155	0.9995918	0	-0.00014901	0.00482559	1.00197721	0	161	507	-964282067	-964282067	147
1.727868	-0.020447	0.006653	-0.038574	0	0.0004272	-0.0000610	0.9991188	0	0.00003123	0.00457668	1.00192642	0	177	506	388097044	388097044	147
1.727877	-0.005249	0.002319	-0.044250	0	0.0006180	0.0001965	0.9990463	0	0.00041151	0.00434637	1.00175023	0	193	507	764510369	764510369	147
1.751834	-0.008240	-0.015198	-0.038574	0	0.0006542	0.0003910	0.9994736	0	0.00057817	0.00426006	1.00159192	0	209	506	2053310201	2053310201	147
1.751845	-0.017334	-0.021851	-0.033081	0	0.0006218	0.0004425	0.9997959	0	0.00046468	0.00430727	1.00193095	0	225	506	1422054121	1422054121	147
1.751855	-0.019287	-0.001465	-0.033142	0	0.0005035	0.0005131	0.9996700	0	0.00046611	0.00417209	1.00229144	0	241	506	-659704117	-659704117	147
1.775809	-0.014954	0.030151	-0.022766	0	0.0002975	0.0004635	0.9993610	0	0.00076818	0.00383377	1.00202060	0	1	506	902630839	902630839	147
1.775867	-0.007568	0.032898	0.000610	0	0.0000305	0.0001030	0.9992294	0	0.00115132	0.00367832	1.00126576	0	17	506	572084493	572084493	147
1.775876	-0.002380	0.002991	0.015015	0	-0.0003452	-0.0003529	0.9992599	0	0.00125217	0.00371861	1.00053287	0	33	507	1230410164	1230410164	147
1.799783	0.000488	-0.017700	0.010315	0	-0.0005531	-0.0006599	0.9991817	0	0.00102305	0.00364423	1.00040913	0	49	507	-344125748	-344125748	147
1.799832	0.008484	-0.013733	-0.002991	0	-0.0004330	-0.0005760	0.9988651	0	0.00100923	0.00355840	1.00113654	0	65	507	1799992007	1799992007	147
1.799842	0.015930	-0.002563	-0.016663	0	-0.0003796	0.0000858	0.9984112	0	0.00129128	0.00391459	1.00194263	0	81	507	-1953441173	-1953441173	147
1.823782	0.012085	0.005066	-0.026489	0	-0.0004807	0.0006676	0.9983578	0	0.00107193	0.00456762	1.00185728	0	97	507	-993743935	-993743935	147
1.823792	0.004700	0.010010	-0.037231	0	-0.0003395	0.0004349	0.9989223	0	0.00039506	0.00476718	1.00122690	0	113	506	-1335362382	-1335362382	147
1.823847	-0.000488	0.016174	-0.044006	0	0.0000381	-0.0000954	0.9995193	0	0.00007415	0.00407577	1.00101042	0	129	506	-1176362508	-1176362508	147
1.847732	-0.005127	0.022949	-0.034058	0	0.0001621	-0.0002995	0.9996490	0	0.00007653	0.00296688	1.00119448	0	145	506	880011087	880011087	147
1.847743	-0.008911	0.022400	-0.029724	0	-0.0002823	-0.0001183	0.9993248	0	0.00004411	0.00252533	1.00115895	0	161	506	-1179386555	-1179386555	147
1.847780	-0.018250	0.014465	-0.046082	0	-0.0007133	0.0002174	0.9989548	0	-0.00010228	0.00318599	1.00075340	0	177	506	343039190	343039190	147
1.871703	-0.025208	0.010376	-0.054382	0	-0.0003357	0.0002785	0.9989414	0	-0.00041318	0.00428391	1.00041461	0	193	506	1372295284	1372295284	147
1.871713	-0.014832	0.013550	-0.041565	0	0.0003586	0.0003700	0.9992371	0	-0.00073862	0.00511694	1.00058627	0	209	507	-523355519	-523355519	147
1.871723	-0.001160	0.016785	-0.026306	0	0.0005741	0.0006924	0.9995728	0	-0.00070071	0.00536966	1.00112438	0	225	507	-1441640308	-1441640308	147
1.895705	0.000977	0.013184	-0.016357	0	0.0004730	0.0007000	0.9997101	0	-0.00016928	0.00507855	1.00148368	0	241	507	325123349	325123349	147
1.895716	-0.005066	0.005859	-0.008057	0	0.0002918	0.0003700	0.9995251	0	0.00044680	0.00496292	1.00149298	0	1	507	740624667	740624667	147
1.895725	-0.013550	0.008728	-0.008423	0	0.0001774	-0.0001049	0.9992409	0	0.00070119	0.00557041	1.00149441	0	17	506	138638588	138638588	147
1.919685	-0.014893	0.014771	-0.020325	0	0.0002613	-0.0006390	0.9992752	0	0.00061893	0.00634718	1.00154352	0	33	506	-1792333	-1792333	147
1.919740	-0.006714	0.003784	-0.028809	0	0.0002117	-0.0005951	0.9995899	0	0.00033712	0.00641012	1.00128436	0	49	506	1209639097	1209639097	147
1.919749	-0.000122	-0.014893	-0.024536	0	0.0000935	0.0002346	0.9996738	0	-0.00006151	0.00561380	1.00103951	0	65	506	93598755	93598755	147
1.943659	-0.004639	-0.024597	-0.014832	0	0.0002022	0.0007191	0.9995499	0	-0.00012612	0.00447917	1.00142741	0	81	506	-1331456023	-1331456023	147
1.943751	-0.015381	-0.031372	-0.005371	0	0.0000973	0.0001831	0.9994373	0	0.00042892	0.00362110	1.00204730	0	97	506	-677352470	-677352470	147
1.943761	-0.018127	-0.039490	0.000366	0	-0.0002670	-0.0005913	0.9991302	0	0.00113606	0.00344300	1.00236320	0	113	507	-229724215	-229724215	147
1.967633	-0.011597	-0.035034	-0.004517	0	-0.0002174	-0.0007229	0.9989529	0	0.00138879	0.00400782	1.00228715	0	129	507	-944979660	-944979660	147
1.967643	-0.008179	-0.011169	-0.009216	0	0.0002766	-0.0005779	0.9993000	0	0.00109768	0.00494027	1.00171161	0	145	507	416314573	416314573	147
1.967697	-0.014526	0.016968	-0.002197	0	0.0005817	-0.0007172	0.9998226	0	0.00062370	0.00566149	1.00114441	0	161	507	-188362053	-188362053	147
1.991606	-0.022644	0.030212	0.002563	0	0.0003586	-0.0007782	1.0003948	0	0.00032234	0.00588846	1.00118613	0	177	506	-1283711915	-1283711915	147
1.991616	-0.022766	0.022827	-0.004517	0	0.0001564	-0.0006981	1.0006905	0	0.00048161	0.00562692	1.00157857	0	193	506	-388577689	-388577689	147
1.991625	-0.021545	0.011230	-0.015442	0	0.0003681	-0.0006485	0.9999809	0	0.00115204	0.00508833	1.00181985	0	209	506	694140311	694140311	147
2.015582	-0.029236	0.007568	-0.021606	0	0.0004711	-0.0003376	0.9989681	0	0.00176787	0.00489068	1.00178504	0	225	506	280953629	280953629	147
2.015593	-0.034668	0.008789	-0.020081	0	0.0001717	-0.0000362	0.9988251	0	0.00194931	0.00533986	1.00179577	0	241	506	-990757324	-990757324	147
2.015603	-0.025208	0.022278	-0.013733	0	-0.0002041	-0.0001698	0.9989891	0	0.00206399	0.00575042	1.00190759	0	1	506	-830915703	-830915703	147
2.039560	-0.016724	0.046021	-0.012451	0	-0.0002689	-0.0005131	0.9988937	0	0.00231862	0.00578570	1.00178862	0	17	506	1141405426	1141405426	147
2.039570	-0.026245	0.055786	-0.021606	0	0.0000401	-0.0006847	0.9992447	0	0.00237870	0.00593615	1.00151706	0	33	507	-908864515	-908864515	147
2.039580	-0.039490	0.041077	-0.030396	0	0.0003643	-0.0006428	0.9999676	0	0.00198674	0.00611877	1.00140667	0	49	507	6366584	6366584	147
2.063536	-0.033081	0.020081	-0.032898	0	0.0003681	-0.0006580	0.9999924	0	0.00127816	0.00587082	1.00151157	0	65	507	-30986082	-30986082	147
2.063590	-0.013672	0.016602	-0.031433	0	0.0000095	-0.0004692	0.9995880	0	0.00056052	0.00512767	1.00153852	0	81	506	-1881786157	-1881786157	147
2.063600	-0.002991	0.025269	-0.022583	0	-0.0006084	0.0002060	0.9996586	0	0.00006700	0.00428224	1.00138617	0	97	506	435797999	435797999	147
2.087540	0.000122	0.024658	-0.010925	0	-0.0010529	0.0005779	0.9996758	0	-0.00000906	0.00395870	1.00139213	0	113	506	-83840265	-83840265	147
2.087554	0.002136	0.014465	-0.004028	0	-0.0008888	0.0002708	0.9994164	0	0.00028038	0.00397563	1.00162292	0	129	506	-653628166	-653628166	147
2.087616	-0.004944	0.001404	-0.002075	0	-0.0003490	0.0000362	0.9994431	0	0.00030875	0.00372314	1.00219941	0	145	506	1024244144	1024244144	147
2.111506	-0.017395	-0.007568	-0.005737	0	0.0000210	0.0001411	0.9993134	0	-0.00005341	0.00357437	1.00296426	0	161	506	-1635881698	-1635881698	147
2.111516	-0.021667	-0.000732	-0.012451	0	-0.0000439	-0.0000114	0.9988117	0	-0.00001788	0.00402880	1.00265098	0	177	506	1713293006	1713293006	147
2.111563	-0.018860	0.012390	-0.016846	0	-0.0004578	-0.0003338	0.9987793	0	0.00009274	0.00460196	1.00111270	0	193	507	1774893642	1774893642	147
2.135483	-0.017822	0.012817	-0.019348	0	-0.0009632	-0.0000763	0.9990520	0	-0.00053406	0.00470090	0.99990106	0	209	507	-2055739633	-2055739633	147
2.135493	-0.018860	0.005066	-0.022156	0	-0.0010242	0.0002708	0.9988880	0	-0.00096965	0.00446010	0.99959373	0	225	507	910401003	910401003	147
2.135503	-0.017761	-0.001587	-0.022034	0	-0.0003948	-0.0000095	0.9989433	0	-0.00032783	0.00414014	0.99980330	0	241	507	-1505193753	-1505193753	147
2.159483	-0.019592	-0.005249	-0.020630	0	0.0002155	-0.0002365	0.9995708	0	0.00054383	0.00370240	1.00016022	0	1	506	1348803210	1348803210	147
2.159493	-0.024414	-0.006897	-0.025818	0	0.0003300	0.0000801	0.9997730	0	0.00072432	0.00328588	1.00002933	0	17	506	838455545	838455545	147
2.159503	-0.026978	-0.014221	-0.033142	0	0.0003033	0.0003300	0.9995689	0	0.00044060	0.00323272	0.99960446	0	33	506	-148681634	-148681634	147
2.183482	-0.027588	-0.017761	-0.028809	0	0.0002708	0.0001869	0.9997082	0	0.00027633	0.00363135	0.99981380	0	49	506	616094900	616094900	147
2.183493	-0.023254	-0.005737	-0.013000	0	0.0000973	0.0002422	0.9998283	0	0.00036335	0.00410080	1.00016236	0	65	506	2124324661	2124324661	147
2.183503	-0.012512	-0.002563	-0.005310	0	0.0000687	0.0006714	0.9997540	0	0.00050807	0.00408912	0.99994659	0	81	506	-511692314	-511692314	147
2.207487	-0.002136	-0.020874	-0.015442	0	0.0002823	0.0008564	0.9996433	0	0.00032830	0.00355411	0.99993300	0	97	507	-324031174	-324031174	147
2.207550	0.001160	-0.027466	-0.024902	0	0.0004311	0.0005894	0.9990902	0	-0.00027537	0.00305057	1.00036311	0	113	507	180360355	180360355	147
2.207559	-0.002686	-0.007996	-0.020142	0	0.0005569	0.0003757	0.9985332	0	-0.00055099	0.00309157	1.00075555	0	129	507	372969990	372969990	147
2.231391	-0.010071	0.005249	-0.007080	0	0.0007610	0.0004368	0.9988194	0	0.00001049	0.00349092	1.00116420	0	145	507	-363480453	-363480453	147
2.231402	-0.016235	-0.000916	0.006409	0	0.0008717	0.0004139	0.9991779	0	0.00070262	0.00361633	1.00128531	0	161	507	-1750757354	-1750757354	147
2.231456	-0.016602	-0.000916	0.015564	0	0.0007915	0.0003033	0.9988461	0	0.00053596	0.00347233	1.00075340	0	177	506	1108405078	1108405078	147
2.255383	-0.012451	0.015503	0.013977	0	0.0004997	0.0004673	0.9987373	0	-0.00039411	0.00359869	1.00039601	0	193	506	-1043415129	-1043415129	147
2.255393	-0.013672	0.027344	-0.003357	0	0.0000381	0.0007629	0.9992790	0	-0.00090861	0.00396800	1.00088882	0	209	506	-813641825	-813641825	147
2.255444	-0.022949	0.019348	-0.026733	0	-0.0003338	0.0006065	0.9997883	0	-0.00052094	0.00422716	1.00163531	0	225	506	-753435691	-753435691	147
2.279357	-0.025269	0.003784	-0.033264	0	-0.0004749	-0.0000477	1.0001469	0	-0.00000906	0.00453329	1.00197744	0	241	507	1689011556	1689011556	147
2.279367	-0.013916	-0.003174	-0.024719	0	-0.0006638	-0.0004807	1.0000420	0	0.00015187	0.00492835	1.00176501	0	1	507	-1396496716	-1396496716	147
2.279376	0.001648	-0.005615	-0.021667	0	-0.0007629	-0.0003624	0.9992027	0	0.00048399	0.00485682	1.00109243	0	17	507	-1351746132	-1351746132	147
2.303358	0.009521	-0.012817	-0.017456	0	-0.0002689	-0.0001106	0.9988422	0	0.00130200	0.00428057	1.00031257	0	33	507	1731668069	1731668069	147
2.303368	0.003784	-0.013062	-0.002869	0	0.0004272	-0.0000248	0.9991856	0	0.00184846	0.00393653	0.99989080	0	49	507	-931760802	-931760802	147
2.303378	-0.004028	0.004395	0.004333	0	0.0005512	-0.0001068	0.9988956	0	0.00157118	0.00406742	0.99979258	0	65	506	-1325110701	-1325110701	147
2.327308	-0.002930	0.015747	-0.006653	0	0.0001545	-0.0003586	0.9984837	0	0.00117373	0.00425982	0.99963832	0	81	506	-138629464	-138629464	147
2.327319	-0.001587	0.000916	-0.021484	0	-0.0002289	-0.0003567	0.9989452	0	0.00126338	0.00444055	0.99966359	0	97	506	1316111986	1316111986	147
2.327328	-0.005188	-0.019348	-0.022949	0	-0.0004234	0.0001221	0.9992733	0	0.00139141	0.00483465	0.99987984	0	113	506	-863870928	-863870928	147
2.351279	-0.008606	-0.023621	-0.018677	0	-0.0002899	0.0004997	0.9990559	0	0.00118542	0.00525308	0.99960780	0	129	506	-1316673162	-1316673162	147
2.351337	-0.010010	-0.011902	-0.024841	0	0.0001583	0.0003929	0.9991570	0	0.00079489	0.00540423	0.99915195	0	145	506	388229671	388229671	147
2.351346	-0.008301	0.004639	-0.032715	0	0.0003300	-0.0000057	0.9993382	0	0.00019383	0.00542784	0.99937868	0	161	507	994485369	994485369	147
2.375256	-0.000854	0.010315	-0.032959	0	0.0001545	-0.0001717	0.9992371	0	-0.00057864	0.00539303	1.00003910	0	177	507	-1134214311	-1134214311	147
2.375266	0.005310	0.002991	-0.031433	0	0.0003204	0.0002956	0.9994240	0	-0.00098848	0.00525808	1.00073671	0	193	507	293539323	293539323	147
2.375319	0.003357	-0.004578	-0.026428	0	0.0009937	0.0009861	0.9997082	0	-0.00063801	0.00500226	1.00153613	0	209	507	-227876514	-227876514	147
2.399234	0.002625	0.003662	-0.016846	0	0.0013561	0.0013542	0.9995213	0	0.00003242	0.00457835	1.00185442	0	225	507	1326822845	1326822845	147
2.399245	0.006409	0.019165	-0.009399	0	0.0007801	0.0013504	0.9993744	0	0.00031662	0.00427866	1.00130033	0	241	506	672436217	672436217	147
2.399298	0.001526	0.015015	-0.006470	0	-0.0001717	0.0010147	0.9995766	0	0.00015473	0.00437498	1.00069404	0	1	506	-345325611	-345325611	147
2.423231	-0.014282	0.002747	-0.010925	0	-0.0005226	0.0007172	0.9993534	0	-0.00014329	0.00477028	1.00049758	0	17	506	1148985234	1148985234	147
2.423241	-0.023682	0.007568	-0.018677	0	0.0001392	0.0008869	0.9987087	0	-0.00038242	0.00533390	1.00028038	0	33	506	315956546	315956546	147
2.423251	-0.018005	0.016479	-0.017029	0	0.0011520	0.0010605	0.9987297	0	-0.00040841	0.00582266	1.00013471	0	49	506	-1966354234	-1966354234	147
2.487196	-0.010620	0.013794	-0.008545	0	0.0013199	0.0008640	0.9992428	0	-0.00008631	0.00583863	1.00054908	0	65	506	1659970437	1659970437	147
2.487208	-0.011902	0.003052	-0.005737	0	0.0005131	0.0005093	0.9992027	0	0.00029397	0.00552106	1.00114489	0	81	507	-1823618528	-1823618528	147
2.487217	-0.018677	-0.008667	-0.011719	0	-0.0004463	-0.0000038	0.9988537	0	0.00020075	0.00506568	1.00113249	0	97	507	258055815	258055815	147
2.487267	-0.018555	-0.016174	-0.022400	0	-0.0010281	-0.0002632	0.9988194	0	-0.00011158	0.00435090	1.00068307	0	113	507	-120283702	-120283702	147
2.487277	-0.009705	-0.021057	-0.028320	0	-0.0008812	0.0000439	0.9987392	0	-0.00011301	0.00401306	1.00050950	0	129	507	1792272686	1792272686	147
2.487286	-0.008728	-0.027832	-0.023865	0	-0.0000095	0.0002098	0.9985600	0	-0.00019073	0.00452852	1.00089169	0	145	506	1342961364	1342961364	147
2.487296	-0.013000	-0.029846	-0.018250	0	0.0006866	-0.0000916	0.9988499	0	-0.00055790	0.00496864	1.00151014	0	161	506	11019028	11019028	147
2.487334	-0.012268	-0.019714	-0.021179	0	0.0006256	-0.0005360	0.9992561	0	-0.00075316	0.00490594	1.00145698	0	177	506	-312326013	-312326013	147
2.536145	-0.014282	-0.011414	-0.029114	0	0.0003586	-0.0009460	0.9992294	0	-0.00055432	0.00507092	1.00072861	0	193	506	-39495938	-39495938	147
2.536156	-0.020691	-0.014221	-0.031311	0	0.0003700	-0.0010796	0.9992695	0	0.00003076	0.00535679	1.00071645	0	209	506	1749947832	1749947832	147
2.536165	-0.026855	-0.018860	-0.024475	0	0.0003700	-0.0010090	0.9993668	0	0.00037169	0.00529289	1.00159478	0	225	506	1863680740	1863680740	147
2.536220	-0.031494	-0.024353	-0.016602	0	0.0003567	-0.0012436	0.9987850	0	0.00005126	0.00509000	1.00199223	0	241	507	1845789492	1845789492	147
2.536229	-0.033630	-0.029419	-0.015869	0	0.0004025	-0.0018005	0.9979534	0	-0.00030398	0.00482440	1.00176024	0	1	507	-324450907	-324450907	147
2.536238	-0.031372	-0.027466	-0.023865	0	0.0003090	-0.0020752	0.9977665	0	-0.00039959	0.00445700	1.00181913	0	17	507	864515193	864515193	147
2.600106	-0.015625	-0.020813	-0.033813	0	0.0002022	-0.0016613	0.9981041	0	-0.00041890	0.00412059	1.00209522	0	33	506	698636237	698636237	147
2.600120	0.002625	-0.011658	-0.040222	0	0.0000744	-0.0011177	0.9986401	0	-0.00055361	0.00386906	1.00214815	0	49	506	2025161969	2025161969	147
2.600130	-0.001038	0.003540	-0.042175	0	-0.0000935	-0.0008831	0.9993057	0	-0.00090122	0.00374675	1.00219965	0	65	506	879421788	879421788	147
2.600151	-0.015869	0.021240	-0.031921	0	-0.0000954	-0.0005455	0.9997978	0	-0.00112724	0.00396657	1.00244761	0	81	506	-1035127631	-1035127631	147
2.600199	-0.021851	0.025696	-0.010193	0	-0.0000095	-0.0002022	0.9998360	0	-0.00091314	0.00451040	1.00258923	0	97	506	-1966380544	-1966380544	147
2.600208	-0.023621	0.013000	0.004150	0	-0.0000057	-0.0002308	0.9996777	0	-0.00046182	0.00487113	1.00238943	0	113	506	731229758	731229758	147
2.600217	-0.024963	0.006470	-0.002258	0	-0.0000687	-0.0001259	0.9996853	0	-0.00019979	0.00491166	1.00227261	0	129	506	1190353211	1190353211	147
2.600250	-0.016541	0.019592	-0.017578	0	-0.0000896	0.0003376	0.9995880	0	-0.00022435	0.00493574	1.00265622	0	145	507	-655131969	-655131969	147
2.624057	0.004089	0.030273	-0.019470	0	-0.0000782	0.0005169	0.9993076	0	-0.00043273	0.00475073	1.00291324	0	161	507	2086791973	2086791973	147
2.624068	0.020203	0.016174	-0.007690	0	-0.0001640	0.0002670	0.9993114	0	-0.00067377	0.00414801	1.00216699	0	177	507	-18469887	-18469887	147
2.624077	0.016541	-0.010254	-0.004150	0	-0.0002422	0.0000610	0.9994202	0	-0.00054216	0.00363755	1.00093293	0	193	507	361399345	361399345	147
2.648030	0.004150	-0.025391	-0.015137	0	-0.0000458	0.0001373	0.9992237	0	0.00003600	0.00360727	1.00029755	0	209	506	2094526783	2094526783	147
2.648040	-0.001221	-0.033020	-0.023987	0	0.0002327	0.0001793	0.9991035	0	0.00041914	0.00391197	1.00012350	0	225	506	-70001988	-70001988	147
2.648050	-0.004578	-0.035217	-0.021057	0	0.0001774	-0.0000744	0.9993896	0	0.00023746	0.00433350	0.99983597	0	241	506	1559101887	1559101887	147
2.672032	-0.009460	-0.014099	-0.009766	0	-0.0000267	-0.0001850	0.9997063	0	-0.00008917	0.00454831	0.99972582	0	1	506	-349442236	-349442236	147
2.672088	-0.014160	0.020386	0.005554	0	0.0001545	-0.0002117	0.9997292	0	-0.00009346	0.00446606	1.00028706	0	17	506	-1365037667	-1365037667	147
2.672098	-0.020813	0.040222	0.015137	0	0.0004845	-0.0004673	0.9994717	0	0.00012636	0.00456882	1.00106072	0	33	506	-1238061975	-1238061975	147
2.696007	-0.020264	0.037109	0.005615	0	0.0004730	-0.0004120	0.9991741	0	0.00025320	0.00486517	1.00108838	0	49	506	-2083275378	-2083275378	147
2.696056	-0.012573	0.018860	-0.010620	0	0.0004997	-0.0000687	0.9990635	0	0.00013161	0.00466251	1.00054908	0	65	507	-568008106	-568008106	147
2.696065	-0.014465	0.003113	-0.010681	0	0.0006180	0.0002861	0.9989548	0	-0.00019979	0.00407720	1.00038385	0	81	507	1492247835	1492247835	147
2.719983	-0.018555	0.003113	-0.001831	0	0.0003643	0.0006714	0.9986916	0	-0.00034642	0.00400567	1.00050116	0	97	507	-1566426412	-1566426412	147
2.719994	-0.009521	0.013916	-0.000305	0	0.0000381	0.0005684	0.9988728	0	-0.00019574	0.00455856	1.00037861	0	113	506	-949241267	-949241267	147
2.720048	-0.001526	0.021729	-0.010010	0	0.0001621	-0.0000191	0.9996109	0	-0.00030565	0.00496459	1.00026774	0	129	506	-43096498	-43096498	147
2.743958	-0.008179	0.025818	-0.023010	0	0.0005493	-0.0003567	0.9998016	0	-0.00054264	0.00474072	1.00058937	0	145	506	1141310854	1141310854	147
2.743968	-0.016174	0.026550	-0.022827	0	0.0007572	-0.0002918	0.9991055	0	-0.00023198	0.00390148	1.00120234	0	161	506	1769562074	1769562074	147
2.744015	-0.010681	0.009644	-0.017517	0	0.0005856	-0.0001297	0.9984360	0	0.00030327	0.00257015	1.00143981	0	177	506	850661722	850661722	147
2.767933	0.000183	-0.020081	-0.023621	0	0.0003319	0.0000191	0.9984474	0	0.00041890	0.00146627	1.00112987	0	193	506	-1587454316	-1587454316	147
2.767944	-0.002380	-0.029541	-0.031982	0	0.0005016	0.0001888	0.9988670	0	-0.00014186	0.00154781	1.00092864	0	209	507	1672480787	1672480787	147
2.767954	-0.012756	-0.009460	-0.036255	0	0.0008755	0.0002785	0.9993420	0	-0.00090742	0.00243115	1.00106907	0	225	507	1586102359	1586102359	147
2.791908	-0.009033	0.008240	-0.036560	0	0.0009956	0.0003395	0.9999390	0	-0.00072002	0.00313759	1.00116897	0	241	507	-1966600594	-1966600594	147
2.791919	0.008118	0.004578	-0.028564	0	0.0008221	0.0006752	1.0003414	0	0.00006700	0.00389361	1.00125217	0	1	507	-876010063	-876010063	147
2.791928	0.020996	-0.001892	-0.020630	0	0.0003757	0.0009842	1.0002613	0	0.00011873	0.00483704	1.00162506	0	17	506	1231585907	1231585907	147
2.815908	0.021973	-0.004150	-0.025452	0	-0.0001087	0.0008392	1.0000610	0	-0.00022125	0.00521278	1.00203133	0	33	506	-975603094	-975603094	147
2.815964	0.016357	-0.014465	-0.029907	0	-0.0002308	0.0005093	0.9997387	0	-0.00020480	0.00504446	1.00200820	0	49	506	1771673397	1771673397	147
2.815974	0.008606	-0.015076	-0.016663	0	0.0000916	0.0004368	0.9992447	0	-0.00010300	0.00500727	1.00181103	0	65	506	635198045	635198045	147
2.839886	0.001587	0.001038	-0.003052	0	0.0005264	0.0005112	0.9992599	0	-0.00010967	0.00521350	1.00192022	0	81	506	1364322551	1364322551	147
2.839936	-0.002380	0.002441	-0.005493	0	0.0005684	0.0001278	0.9996319	0	-0.00019360	0.00538135	1.00207067	0	97	506	1499780972	1499780972	147
2.839946	-0.004944	-0.007324	-0.009827	0	0.0002384	-0.0006294	0.9994717	0	-0.00029087	0.00535583	1.00167489	0	113	506	-1372957794	-1372957794	147
2.863859	-0.008179	-0.005432	-0.007874	0	0.0001678	-0.0010452	0.9989204	0	-0.00035763	0.00515008	1.00095630	0	129	506	-279271922	-279271922	147
2.863871	-0.014587	-0.005005	-0.007202	0	0.0003700	-0.0011044	0.9985714	0	-0.00051737	0.00482607	1.00070214	0	145	507	663318416	663318416	147
2.863930	-0.021912	-0.017029	-0.010498	0	0.0004139	-0.0011330	0.9985962	0	-0.00069642	0.00429225	1.00091362	0	161	507	1618373447	1618373447	147
2.887831	-0.024109	-0.029114	-0.015015	0	0.0002193	-0.0010490	0.9988766	0	-0.00044656	0.00363898	1.00100255	0	177	507	-1203625420	-1203625420	147
2.887842	-0.025146	-0.035400	-0.018860	0	-0.0000858	-0.0006599	0.9990311	0	0.00035262	0.00352478	1.00104594	0	193	506	-15169301	-15169301	147
2.887889	-0.025024	-0.035706	-0.021423	0	-0.0000839	-0.0001640	0.9987507	0	0.00095224	0.00406551	1.00147176	0	209	506	-698161811	-698161811	147
2.911811	-0.019043	-0.026794	-0.021729	0	0.0002441	-0.0000992	0.9985905	0	0.00100303	0.00460196	1.00203204	0	225	506	-505285430	-505285430	147
2.911822	-0.016846	-0.015625	-0.023376	0	0.0002804	-0.0003071	0.9992199	0	0.00086784	0.00496197	1.00224781	0	241	506	1556863321	1556863321	147
2.911832	-0.020630	-0.012573	-0.027283	0	-0.0001202	-0.0002556	0.9999752	0	0.00071931	0.00515485	1.00211096	0	1	506	-2060791648	-2060791648	147
2.935820	-0.022949	-0.011475	-0.025879	0	-0.0005322	-0.0001583	1.0002270	0	0.00040722	0.00505853	1.00178576	0	17	505	-2019927154	-2019927154	147
2.935833	-0.026917	-0.002930	-0.023376	0	-0.0006485	-0.0002041	1.0001774	0	-0.00029325	0.00492287	1.00140452	0	33	507	2103837148	2103837148	147
2.935842	-0.029541	0.013245	-0.027954	0	-0.0005398	-0.0002480	0.9997005	0	-0.00090361	0.00482512	1.00097847	0	49	507	-1930162240	-1930162240	147
2.959783	-0.028076	0.028015	-0.030334	0	-0.0004978	-0.0004292	0.9990215	0	-0.00090528	0.00460768	1.00055909	0	65	507	-833880963	-833880963	147
2.959845	-0.029846	0.028442	-0.022217	0	-0.0005875	-0.0006199	0.9989624	0	-0.00058794	0.00447106	1.00058913	0	81	507	-2048059088	-2048059088	147
2.959854	-0.029541	0.022400	-0.017578	0	-0.0005856	-0.0004635	0.9993305	0	-0.00024199	0.00449562	1.00124264	0	97	506	1823851963	1823851963	147
2.983757	-0.024658	0.024170	-0.024658	0	-0.0003262	-0.0003586	0.9993992	0	0.00002003	0.00439358	1.00173569	0	113	506	891947331	891947331	147
2.983804	-0.019958	0.020569	-0.025024	0	-0.0000286	-0.0006752	0.9993114	0	0.00018668	0.00435758	1.00133491	0	129	506	-1749042296	-1749042296	147
2.983814	-0.015320	0.005920	-0.012634	0	0.0000858	-0.0006638	0.9992447	0	0.00050497	0.00473619	1.00065422	0	145	506	-1386397291	-1386397291	147
3.007735	-0.019531	0.001831	-0.006287	0	0.0002403	-0.0001392	0.9989910	0	0.00106359	0.00515151	1.00050473	0	161	506	758292060	758292060	147
3.007746	-0.033936	0.008789	-0.013306	0	0.0001888	0.0001316	0.9988251	0	0.00150490	0.00529456	1.00062847	0	177	506	52061397	52061397	147
3.007798	-0.042114	0.005066	-0.021484	0	-0.0002422	0.0002079	0.9992905	0	0.00160909	0.00525594	1.00077391	0	193	506	-1986802029	-1986802029	147
3.031733	-0.038208	-0.007019	-0.021545	0	-0.0003681	0.0002995	0.9997959	0	0.00147080	0.00506115	1.00104618	0	209	507	372582416	372582416	147
3.031744	-0.032349	-0.004761	-0.011597	0	-0.0001392	0.0000782	0.9997692	0	0.00100613	0.00467753	1.00110269	0	225	507	1541268212	1541268212	147
3.031793	-0.029297	0.011475	0.006531	0	-0.0003071	-0.0003815	0.9999924	0	0.00028706	0.00411820	1.00076842	0	241	507	-606382086	-606382086	147
3.055709	-0.021362	0.020935	0.014709	0	-0.0008297	-0.0006123	1.0003548	0	-0.00032401	0.00380206	1.00046253	0	1	506	960430432	960430432	147
3.055719	-0.008667	0.022034	0.000671	0	-0.0008392	-0.0004005	1.0000114	0	-0.00063896	0.00405383	1.00022435	0	17	506	-935049799	-935049799	147
3.055729	-0.006042	0.021057	-0.016846	0	-0.0002079	-0.0001335	0.9994144	0	-0.00079846	0.00443172	1.00030041	0	33	506	1464427197	1464427197	147
3.079685	-0.018005	0.014893	-0.024536	0	0.0001335	-0.0000553	0.9991341	0	-0.00103092	0.00436735	1.00124407	0	49	506	1094962670	1094962670	147
3.079695	-0.025818	0.012512	-0.029358	0	-0.0003300	0.0001793	0.9987946	0	-0.00112176	0.00380349	1.00226188	0	65	506	2094741438	2094741438	147
3.079705	-0.015747	0.017883	-0.032715	0	-0.0008678	0.0005951	0.9984341	0	-0.00094485	0.00321221	1.00237656	0	81	506	-904043224	-904043224	147
3.103672	0.001282	0.016846	-0.032166	0	-0.0006847	0.0006237	0.9986229	0	-0.00069904	0.00308871	1.00210643	0	97	506	-1785540867	-1785540867	147
3.103749	0.011658	0.014160	-0.032654	0	-0.0003700	0.0000401	0.9990177	0	-0.00023532	0.00350237	1.00214052	0	113	507	-1377229621	-1377229621	147
3.103759	0.014404	0.014404	-0.031250	0	-0.0008049	-0.0006275	0.9991894	0	0.00039530	0.00415516	1.00210476	0	129	507	-1535873241	-1535873241	147
3.127658	0.015625	0.002319	-0.021240	0	-0.0013313	-0.0008106	0.9994678	0	0.00073147	0.00444627	1.00167680	0	145	507	1440493407	1440493407	147
3.127707	0.011414	-0.009216	-0.011841	0	-0.0010662	-0.0006218	0.9995022	0	0.00075722	0.00420666	1.00140309	0	161	507	1575523502	1575523502	147
3.127716	-0.003052	-0.000793	-0.012512	0	-0.0005646	-0.0003567	0.9989567	0	0.00087428	0.00409913	1.00132990	0	177	506	264962709	264962709	147
3.151633	-0.009583	0.009094	-0.017700	0	-0.0004864	0.0000172	0.9987831	0	0.00126863	0.00437474	1.00135374	0	193	506	819328958	819328958	147
3.151644	0.000977	0.012390	-0.017151	0	-0.0005054	0.0001965	0.9990864	0	0.00164557	0.00454092	1.00183344	0	209	506	1926092995	1926092995	147
3.151699	0.006897	0.017517	-0.015442	0	-0.0002460	-0.0001469	0.9990788	0	0.00170875	0.00442028	1.00208616	0	225	506	-1501165623	-1501165623	147
3.175610	-0.007141	0.011047	-0.021606	0	0.0001755	-0.0004749	0.9992123	0	0.00146270	0.00425196	1.00153422	0	241	506	-1753979791	-1753979791	147
3.175620	-0.024902	-0.011169	-0.025696	0	0.0004292	-0.0004044	0.9999199	0	0.00097394	0.00432444	1.00101781	0	1	506	1402340550	1402340550	147
3.175667	-0.030518	-0.023438	-0.021301	0	0.0003452	-0.0003700	1.0002918	0	0.00032187	0.00467014	1.00120449	0	17	507	-1937756604	-1937756604	147
3.199584	-0.027527	-0.013916	-0.018311	0	0.0002499	-0.0005589	1.0000496	0	-0.00019264	0.00497985	1.00167012	0	33	507	-1209186387	-1209186387	147
3.199596	-0.021179	-0.007385	-0.018433	0	0.0002365	-0.0005989	0.9999065	0	-0.00002575	0.00512743	1.00160122	0	49	507	2033746587	2033746587	147
3.199606	-0.020020	-0.018127	-0.018311	0	0.0000210	-0.0003166	0.9996338	0	0.00053144	0.00517631	1.00092840	0	65	507	-1613840504	-1613840504	147
3.223568	-0.023743	-0.021545	-0.018372	0	-0.0001411	-0.0000515	0.9991703	0	0.00070906	0.00491285	1.00044537	0	81	506	563104844	563104844	147
3.223578	-0.019348	-0.004150	-0.015015	0	-0.0002537	-0.0000763	0.9993134	0	0.00063348	0.00437880	1.00081801	0	97	506	538895291	538895291	147
3.223587	-0.007019	0.015625	-0.009827	0	-0.0007591	-0.0003452	0.9996395	0	0.00057769	0.00425982	1.00165343	0	113	506	-340095267	-340095267	147
3.247558	-0.005127	0.023499	-0.009705	0	-0.0011749	-0.0005531	0.9994812	0	0.00068045	0.00473547	1.00185227	0	129	506	-461001203	-461001203	147
3.247569	-0.015198	0.019653	-0.007568	0	-0.0010052	-0.0003586	0.9995060	0	0.00101900	0.00536656	1.00138426	0	145	506	-320747958	-320747958	147
3.247578	-0.016174	0.010559	-0.002075	0	-0.0006447	0.0000668	0.9998703	0	0.00117517	0.00582695	1.00131011	0	161	506	-2053890510	-2053890510	147
3.271507	-0.006958	0.005005	-0.006409	0	-0.0003166	0.0003891	0.9997444	0	0.00077677	0.00588250	1.00150824	0	177	507	2107515505	2107515505	147
3.271561	0.003601	0.004517	-0.011841	0	0.0000343	0.0004787	0.9992428	0	-0.00008059	0.00577807	1.00107527	0	193	507	-1113829686	-1113829686	147
3.271571	0.014465	0.004456	-0.007996	0	0.0002975	0.0003071	0.9992485	0	-0.00080442	0.00564551	1.00047827	0	209	507	-1141640362	-1141640362	147
3.295489	0.015076	0.007629	-0.012146	0	0.0002575	0.0000801	0.9995670	0	-0.00077701	0.00501657	1.00060320	0	225	507	1760586421	1760586421	147
3.295502	0.002258	0.021606	-0.026611	0	-0.0001259	0.0000057	0.9995117	0	-0.00007701	0.00423861	1.00118804	0	241	506	1085023948	1085023948	147
3.295566	-0.009155	0.036194	-0.030579	0	-0.0002060	-0.0000515	0.9992599	0	0.00059199	0.00412869	1.00148344	0	1	506	-706726993	-706726993	147
3.319487	-0.009583	0.037476	-0.021851	0	0.0003967	-0.0003510	0.9991112	0	0.00076771	0.00433969	1.00134087	0	17	506	-1116811808	-1116811808	147
3.319498	0.001038	0.032715	-0.017151	0	0.0008430	-0.0007133	0.9990025	0	0.00080132	0.00416303	1.00099444	0	33	506	-336037660	-336037660	147
3.319551	0.014465	0.022217	-0.021973	0	0.0006466	-0.0005856	0.9988728	0	0.00099754	0.00362992	1.00054622	0	49	506	2070847506	2070847506	147
3.343483	0.016541	-0.003967	-0.030396	0	0.0003033	0.0000935	0.9986362	0	0.00098324	0.00306082	1.00028014	0	65	506	898076995	898076995	147
3.343494	0.006958	-0.027405	-0.037598	0	-0.0000343	0.0006599	0.9984779	0	0.00057840	0.00261497	1.00030446	0	81	506	1888502604	1888502604	147
3.343503	-0.006226	-0.016357	-0.038391	0	-0.0004749	0.0006237	0.9988041	0	0.00000620	0.00231624	1.00035930	0	97	507	-1118360001	-1118360001	147
3.367412	-0.012146	0.013672	-0.032898	0	-0.0007725	0.0002041	0.9992466	0	-0.00060868	0.00243282	1.00060177	0	113	507	-703673181	-703673181	147
3.367423	-0.009277	0.017151	-0.024963	0	-0.0007648	-0.0002632	0.9990578	0	-0.00089765	0.00338316	1.00109959	0	129	507	1398417675	1398417675	147
3.367433	-0.012756	-0.004639	-0.018372	0	-0.0004082	-0.0004253	0.9987965	0	-0.00058341	0.00475144	1.00123215	0	145	507	-1336534375	-1336534375	147
3.391383	-0.019836	-0.011658	-0.017151	0	0.0001888	-0.0001278	0.9993382	0	-0.00018549	0.00564194	1.00081468	0	161	506	786057434	786057434	147
3.391393	-0.022034	0.000732	-0.016785	0	0.0005932	0.0001507	0.9999599	0	-0.00016308	0.00585961	1.00047278	0	177	506	-375380966	-375380966	147
3.391402	-0.027893	0.001770	-0.013428	0	0.0006294	0.0002804	0.9998894	0	-0.00006437	0.00546026	1.00048184	0	193	506	-206613285	-206613285	147
3.415361	-0.033020	-0.006226	-0.012878	0	0.0003910	0.0004864	0.9996376	0	0.00037980	0.00467181	1.00054765	0	209	506	-258771069	-258771069	147
3.415416	-0.026001	0.000854	-0.013672	0	0.0001450	0.0004787	0.9995499	0	0.00055742	0.00417852	1.00068784	0	225	506	719710424	719710424	147
3.415425	-0.015808	0.014404	-0.010742	0	-0.0000553	0.0000076	0.9993515	0	0.00019288	0.00410175	1.00090289	0	241	506	-474983326	-474983326	147
3.439359	-0.011963	0.016602	-0.011536	0	-0.0005646	-0.0005054	0.9990711	0	-0.00030184	0.00392604	1.00077844	0	1	507	1459593636	1459593636	147
3.439369	-0.013000	0.010376	-0.019470	0	-0.0009441	-0.0007057	0.9990158	0	-0.00051093	0.00360918	1.00056148	0	17	507	1477601614	1477601614	147
3.439423	-0.016907	0.004456	-0.025696	0	-0.0004520	-0.0010452	0.9993038	0	-0.00027275	0.00354338	1.00078440	0	33	507	-2043318403	-2043318403	147
3.463336	-0.014526	0.001709	-0.027771	0	0.0002327	-0.0015621	0.9995403	0	0.00024843	0.00383782	1.00125432	0	49	507	-25371563	-25371563	147
3.463345	-0.007263	0.003296	-0.025085	0	0.0002327	-0.0014324	0.9993610	0	0.00085568	0.00432634	1.00160766	0	65	506	410090306	410090306	147
3.463393	-0.004578	0.013733	-0.015869	0	0.0000515	-0.0007725	0.9991264	0	0.00140810	0.00458598	1.00154829	0	81	506	-477151529	-477151529	147
3.487308	-0.001038	0.027893	-0.009705	0	0.0001450	-0.0003891	0.9991817	0	0.00174737	0.00432563	1.00115919	0	97	506	1002589875	1002589875	147
3.487318	0.002258	0.030945	-0.009888	0	0.0002480	-0.0002441	0.9994488	0	0.00164795	0.00394654	1.00095558	0	113	506	1821342049	1821342049	147
3.487328	-0.001465	0.016663	-0.006226	0	0.0001526	0.0000343	0.9997444	0	0.00105143	0.00385642	1.00079393	0	129	506	1734140495	1734140495	147
3.511284	-0.008362	0.001099	0.002197	0	-0.0002232	0.0005970	0.9998684	0	0.00041604	0.00393343	1.00026989	0	145	506	958272462	958272462	147
3.511294	-0.016235	-0.001404	0.005859	0	-0.0005245	0.0010986	0.9997368	0	0.00009751	0.00405812	0.99987507	0	161	507	-54259106	-54259106	147
3.511304	-0.023926	-0.000977	-0.001404	0	-0.0004463	0.0010490	0.9995327	0	0.00026178	0.00419211	1.00002766	0	177	507	-184758809	-184758809	147
3.535260	-0.028198	0.001709	-0.014099	0	-0.0003567	0.0007572	0.9993134	0	0.00086617	0.00428176	1.00015283	0	193	507	-1772140060	-1772140060	147
3.535317	-0.023926	0.011414	-0.017700	0	-0.0003376	0.0005798	0.9989433	0	0.00106716	0.00451446	0.99982738	0	209	507	61168895	61168895	147
3.535326	-0.014648	0.019348	-0.015381	0	-0.0001488	0.0003242	0.9985580	0	0.00072002	0.00472808	0.99963069	0	225	506	1388065967	1388065967	147
3.559234	-0.012939	0.022644	-0.018921	0	-0.0000420	-0.0000439	0.9982529	0	0.00069547	0.00446701	1.00004339	0	241	506	1766626561	1766626561	147
3.559288	-0.007263	0.021240	-0.023071	0	-0.0001965	-0.0003510	0.9982452	0	0.00086045	0.00400949	1.00036907	0	1	506	171210817	171210817	147
3.559298	0.009277	0.019226	-0.026855	0	-0.0002651	-0.0005112	0.9990292	0	0.00069618	0.00388741	1.00021434	0	17	506	-366608957	-366608957	147
3.623210	0.014282	0.014771	-0.030640	0	-0.0001011	-0.0004234	0.9999256	0	0.00040889	0.00410080	1.00016809	0	33	505	-1702525583	-1702525583	147
3.623223	0.004517	0.002075	-0.027893	0	0.0000744	-0.0000839	0.9998932	0	0.00031638	0.00453782	1.00009251	0	49	506	-1106020657	-1106020657	147
3.623285	-0.002991	-0.004395	-0.026306	0	0.0002518	0.0003109	0.9995995	0	0.00048280	0.00518537	0.99982524	0	65	507	-1784330116	-1784330116	147
3.623295	-0.006104	0.001892	-0.031006	0	0.0004349	0.0006599	0.9997387	0	0.00066066	0.00553608	0.99996972	0	81	507	-1360247633	-1360247633	147
3.623304	-0.009583	0.002075	-0.031799	0	0.0002785	0.0007858	0.9998093	0	0.00074840	0.00490999	1.00024390	0	97	507	-768660002	-768660002	147
3.623337	-0.007812	-0.003052	-0.026550	0	-0.0000019	0.0003395	0.9997368	0	0.00094151	0.00385427	0.99992824	0	113	507	-158475900	-158475900	147
3.623348	0.002319	0.005737	-0.020447	0	-0.0000114	-0.0003376	0.9997139	0	0.00123978	0.00345707	0.99949694	0	129	506	-755562468	-755562468	147
3.623357	0.011658	0.020935	-0.017578	0	-0.0002060	-0.0004826	0.9994812	0	0.00133443	0.00374603	0.99964070	0	145	506	-1731680522	-1731680522	147
3.672119	0.006409	0.027771	-0.017151	0	-0.0007591	-0.0003853	0.9991570	0	0.00104976	0.00410700	0.99987817	0	161	506	1578605524	1578605524	147
3.672173	-0.013245	0.024109	-0.014771	0	-0.0011177	-0.0005608	0.9992085	0	0.00072813	0.00412965	0.99979568	0	177	506	1311239974	1311239974	147
3.672182	-0.029480	0.008118	-0.015442	0	-0.0009003	-0.0006371	0.9995728	0	0.00053835	0.00401521	0.99998045	0	193	506	-798360228	-798360228	147
3.672191	-0.031311	-0.005981	-0.022278	0	-0.0003490	-0.0004063	0.9997883	0	0.00020027	0.00425220	1.00039625	0	209	506	886528765	886528765	147
3.672201	-0.023560	0.000000	-0.028198	0	0.0000267	-0.0000782	0.9999561	0	-0.00021601	0.00471187	1.00055075	0	225	506	1906746473	1906746473	147
3.672239	-0.017700	0.015991	-0.032410	0	0.0001984	0.0000591	1.0000420	0	-0.00026178	0.00498891	1.00107622	0	241	507	449928061	449928061	147
3.696109	-0.017944	0.020020	-0.031128	0	0.0002785	-0.0002460	0.9992657	0	0.00013638	0.00516844	1.00220442	0	1	507	1623145251	1623145251	147
3.696120	-0.013672	0.010010	-0.020630	0	0.0002403	-0.0005169	0.9982452	0	0.00041890	0.00548959	1.00278211	0	17	507	1005281988	1005281988	147
3.696168	-0.002075	-0.000122	-0.013916	0	0.0001202	-0.0003242	0.9983063	0	0.00021791	0.00566077	1.00232291	0	33	507	-405448971	-405448971	147
3.720059	0.003113	-0.002380	-0.018677	0	-0.0001278	-0.0000095	0.9987373	0	-0.00024986	0.00518990	1.00142789	0	49	506	-1486250207	-1486250207	147
3.720071	-0.001648	-0.003174	-0.022705	0	-0.0004883	0.0003567	0.9988136	0	-0.00078702	0.00445700	1.00073314	0	65	506	187865350	187865350	147
3.720080	-0.008118	-0.012451	-0.016724	0	-0.0007629	0.0006332	0.9990902	0	-0.00130391	0.00421214	1.00092721	0	81	506	1584965699	1584965699	147
3.744032	-0.011169	-0.022766	-0.008301	0	-0.0008259	0.0003738	0.9992599	0	-0.00158334	0.00441599	1.00180769	0	97	506	2045763359	2045763359	147
3.744042	-0.008728	-0.016479	-0.009155	0	-0.0006962	-0.0000896	0.9990082	0	-0.00148964	0.00456238	1.00229287	0	113	506	-1411010222	-1411010222	147
3.744052	0.000366	0.003479	-0.018311	0	-0.0003624	-0.0002289	0.9990807	0	-0.00116110	0.00426316	1.00238967	0	129	506	1766197525	1766197525	147
3.768007	0.008118	0.015686	-0.019043	0	0.0002460	-0.0000210	0.9994354	0	-0.00062823	0.00368261	1.00240517	0	145	507	476421361	476421361	147
3.768017	-0.001892	0.014587	-0.008057	0	0.0009480	0.0003510	0.9997139	0	0.00014448	0.00331759	1.00195909	0	161	507	220849711	220849711	147
3.768026	-0.017395	0.006226	-0.008606	0	0.0012493	0.0004292	1.0000477	0	0.00062013	0.00329733	1.00126028	0	177	507	-1071428973	-1071428973	147
3.792010	-0.010925	-0.010315	-0.019592	0	0.0008545	0.0001755	1.0000763	0	0.00004530	0.00345421	1.00093246	0	193	506	607713884	607713884	147
3.792112	0.007751	-0.026367	-0.018860	0	0.0000248	0.0001106	0.9997368	0	-0.00141716	0.00345969	1.00088096	0	209	506	1692415300	1692415300	147
3.792121	0.017212	-0.033264	-0.012085	0	-0.0004997	0.0001621	0.9994850	0	-0.00258470	0.00335288	1.00080609	0	225	506	20007987	20007987	147
3.815984	0.019531	-0.033691	-0.009399	0	-0.0003395	0.0001183	0.9993782	0	-0.00265408	0.00369525	1.00089741	0	241	506	-495951429	-495951429	147
3.815994	0.023315	-0.023010	-0.007629	0	-0.0000172	0.0003624	0.9991398	0	-0.00182867	0.00430560	1.00100684	0	1	506	-413451100	-413451100	147
3.816048	0.022217	-0.000488	-0.011719	0	0.0001316	0.0008659	0.9988480	0	-0.00065207	0.00438690	1.00087953	0	17	506	575624615	575624615	147
3.839957	0.010010	0.017212	-0.026733	0	0.0001869	0.0009499	0.9989109	0	0.00045371	0.00417542	1.00105572	0	33	507	955418849	955418849	147
3.839968	-0.002136	0.018738	-0.043640	0	0.0002594	0.0004177	0.9991035	0	0.00106311	0.00458884	1.00159359	0	49	507	1439868392	1439868392	147
3.840016	-0.007263	0.012573	-0.046570	0	0.0007324	-0.0002480	0.9992123	0	0.00091696	0.00542521	1.00172043	0	65	507	-641058213	-641058213	147
3.863936	-0.012451	0.008362	-0.034485	0	0.0010929	-0.0006962	0.9994297	0	0.00066447	0.00582576	1.00143766	0	81	507	1685529938	1685529938	147
3.863947	-0.017029	0.002441	-0.020447	0	0.0003319	-0.0008297	0.9993820	0	0.00087643	0.00569224	1.00105309	0	97	507	1731895755	1731895755	147
3.863956	-0.011780	-0.011475	-0.012329	0	-0.0007744	-0.0005341	0.9988384	0	0.00105572	0.00521350	1.00032640	0	113	506	1047432024	1047432024	147
3.887913	-0.004272	-0.026245	-0.015808	0	-0.0009632	0.0000648	0.9985580	0	0.00081825	0.00465775	0.99974728	0	129	506	7074838	7074838	147
3.887925	-0.015625	-0.025757	-0.028076	0	-0.0003815	0.0003643	0.9990997	0	0.00046086	0.00440526	0.99995804	0	145	506	-919012008	-919012008	147
3.887934	-0.038147	-0.013794	-0.036072	0	0.0002079	0.0000896	0.9996834	0	0.00060606	0.00431418	1.00032377	0	161	506	594610862	594610862	147
3.911877	-0.040588	-0.005859	-0.035278	0	0.0003910	-0.0001869	0.9996471	0	0.00139880	0.00414538	1.00044465	0	177	506	136068182	136068182	147
3.911932	-0.019714	-0.003296	-0.027222	0	0.0002918	-0.0000572	0.9994850	0	0.00198030	0.00394607	1.00079584	0	193	506	-295897281	-295897281	147
3.911942	-0.004272	-0.002625	-0.019043	0	0.0002728	0.0002270	0.9994316	0	0.00175452	0.00382733	1.00130653	0	209	507	-1890246429	-1890246429	147
3.935878	-0.010254	0.004700	-0.020325	0	0.0006237	0.0004044	0.9992256	0	0.00107503	0.00388956	1.00143242	0	225	507	1005025484	1005025484	147
3.935922	-0.021179	0.023010	-0.023010	0	0.0009842	0.0005245	0.9992352	0	0.00040054	0.00420165	1.00126672	0	241	507	-1003812431	-1003812431	147
3.935932	-0.020142	0.032898	-0.022400	0	0.0006905	0.0004272	0.9995918	0	0.00002241	0.00480795	1.00125718	0	1	506	-2050655437	-2050655437	147
3.959840	-0.013000	0.028381	-0.026184	0	0.0000610	-0.0000267	0.9997063	0	0.00004220	0.00556254	1.00112104	0	17	507	729601144	729601144	147
3.959854	-0.011597	0.028015	-0.024292	0	-0.0001354	-0.0003433	0.9996452	0	0.00025463	0.00617075	1.00047708	0	33	506	-2102715218	-2102715218	147
3.959924	-0.011719	0.033325	-0.012573	0	0.0003166	-0.0002422	0.9996262	0	0.00063276	0.00616670	0.99981642	0	49	506	972299057	972299057	147
3.983828	-0.003540	0.036011	-0.010803	0	0.0011120	0.0000744	0.9992771	0	0.00099039	0.00536180	0.99962354	0	65	506	-1351728376	-1351728376	147
3.983845	0.006042	0.040833	-0.019531	0	0.0015965	0.0003757	0.9989014	0	0.00089312	0.00450087	0.99994683	0	81	506	-768122771	-768122771	147
3.983891	0.006470	0.043518	-0.018555	0	0.0012779	0.0003700	0.9991817	0	0.00065851	0.00420475	1.00082469	0	97	506	566581443	566581443	147
4.007807	0.001038	0.030457	-0.014587	0	0.0005932	0.0000153	0.9994659	0	0.00041533	0.00437856	1.00156569	0	113	506	1005176896	1005176896	147
4.007820	-0.002869	0.015808	-0.024902	0	0.0003738	-0.0004539	0.9989815	0	-0.00018787	0.00449276	1.00115466	0	129	507	-932456696	-932456696	147
4.007830	-0.004211	0.019470	-0.033447	0	0.0004005	-0.0007248	0.9985294	0	-0.00067782	0.00385475	1.00045514	0	145	507	59275925	59275925	147
4.031780	-0.003540	0.027893	-0.026062	0	0.0001087	-0.0007000	0.9986382	0	-0.00083113	0.00305796	1.00070477	0	161	507	415774796	415774796	147
4.031794	-0.006104	0.024353	-0.015625	0	-0.0002117	-0.0006962	0.9986362	0	-0.00098348	0.00323296	1.00115323	0	177	507	926433360	926433360	147
4.031804	-0.013306	0.018188	-0.006897	0	-0.0004215	-0.0007267	0.9985218	0	-0.00070333	0.00392532	1.00121808	0	193	506	97706083	97706083	147
4.055728	-0.011230	0.015991	-0.003479	0	-0.0007038	-0.0005341	0.9987392	0	0.00017214	0.00419545	1.00122738	0	209	506	619066441	619066441	147
4.055782	-0.003601	0.007935	-0.013123	0	-0.0007114	-0.0001469	0.9988060	0	0.00085926	0.00408697	1.00105143	0	225	506	-2066388150	-2066388150	147
4.055792	-0.005127	-0.000610	-0.027161	0	-0.0002899	0.0001106	0.9986839	0	0.00112987	0.00410676	1.00081968	0	241	506	-894862142	-894862142	147
4.079753	-0.013062	0.004456	-0.033447	0	0.0000916	0.0000877	0.9989967	0	0.00133157	0.00437713	1.00084639	0	1	506	-974178819	-974178819	147
4.079799	-0.021179	0.013123	-0.031921	0	0.0000973	0.0002365	0.9993477	0	0.00138330	0.00460720	1.00070238	0	17	506	776407791	776407791	147
4.079809	-0.021545	0.007751	-0.036499	0	0.0000782	0.0008411	0.9993248	0	0.00119781	0.00449944	1.00026441	0	33	507	734215953	734215953	147
4.103724	-0.015137	-0.006836	-0.048218	0	0.0002918	0.0012207	0.9992065	0	0.00084758	0.00425577	1.00020051	0	49	507	2100892268	2100892268	147
4.103736	-0.013611	-0.013000	-0.043579	0	0.0001278	0.0006943	0.9989929	0	0.00028419	0.00455952	1.00055051	0	65	507	925431471	925431471	147
4.103791	-0.012634	-0.007812	-0.021667	0	-0.0003719	-0.0002308	0.9989548	0	-0.00041008	0.00511932	1.00064301	0	81	507	1436169730	1436169730	147
4.127676	-0.007690	-0.003906	-0.007141	0	-0.0003357	-0.0006046	0.9994106	0	-0.00113773	0.00501895	1.00038028	0	97	506	-397775722	-397775722	147
4.127689	-0.011230	-0.008911	-0.009827	0	0.0002728	-0.0005226	0.9997425	0	-0.00153399	0.00433230	1.00009775	0	113	506	2051015577	2051015577	147
4.127711	-0.019592	-0.016174	-0.019348	0	0.0006905	-0.0005741	0.9994888	0	-0.00115967	0.00365782	0.99977183	0	129	506	17446372	17446372	147
4.151673	-0.017578	-0.014099	-0.022339	0	0.0004215	-0.0006199	0.9990978	0	-0.00040102	0.00353813	0.99946332	0	145	506	-717777354	-717777354	147
4.151684	-0.008118	-0.003662	-0.023621	0	-0.0000725	-0.0004482	0.9988308	0	0.00003815	0.00387859	0.99941945	0	161	506	1954372346	1954372346	147
4.151706	0.003113	0.004089	-0.031067	0	-0.0002003	-0.0003567	0.9986515	0	-0.00001955	0.00404477	0.99958062	0	177	506	550183219	550183219	147
4.175649	0.004089	0.007629	-0.031616	0	0.0000706	-0.0004215	0.9988480	0	-0.00010920	0.00399518	0.99987221	0	193	507	749249269	749249269	147
4.175660	-0.009827	0.015198	-0.023071	0	0.0004826	-0.0004749	0.9992981	0	0.00018001	0.00385904	1.00029731	0	209	507	-75643582	-75643582	147
4.175681	-0.016968	0.025757	-0.021362	0	0.0005379	-0.0005970	0.9994869	0	0.00061560	0.00368547	1.00054812	0	225	507	1290088808	1290088808	147
4.199650	-0.019409	0.030396	-0.024414	0	0.0001755	-0.0007038	0.9995060	0	0.00089407	0.00366378	1.00045276	0	241	507	972187359	972187359	147
4.199714	-0.030884	0.029114	-0.023132	0	-0.0002899	-0.0005665	0.9996910	0	0.00097442	0.00384808	1.00033736	0	1	506	-510608778	-510608778	147
4.199724	-0.036804	0.023804	-0.023071	0	-0.0005989	-0.0002804	0.9997540	0	0.00110030	0.00431514	1.00031281	0	17	506	322629416	322629416	147
4.223593	-0.025330	0.014343	-0.019226	0	-0.0003548	-0.0001659	0.9992294	0	0.00140095	0.00456500	1.00025773	0	33	506	-661301617	-661301617	147
4.223644	0.004639	0.009094	-0.006409	0	0.0004311	-0.0002556	0.9987068	0	0.00143003	0.00380135	1.00001049	0	49	505	-504339749	-504339749	147
4.223654	0.035278	0.011230	-0.002625	0	0.0010738	-0.0001068	0.9990101	0	0.00091839	0.00272822	0.99958062	0	65	506	1643668007	1643668007	147
4.247593	0.038086	0.015442	-0.009338	0	0.0008316	0.0001583	0.9996071	0	0.00013399	0.00274158	0.99928522	0	81	506	1600639611	1600639611	147
4.247604	0.019043	0.021912	-0.010254	0	-0.0000153	-0.0000591	0.9998646	0	-0.00050545	0.00385427	0.99927950	0	97	507	1704100395	1704100395	147
4.247656	-0.003845	0.025024	-0.006531	0	-0.0001507	-0.0004330	0.9999123	0	-0.00071716	0.00513387	0.99979854	0	113	507	511457491	511457491	147
4.271573	-0.022461	0.017822	-0.007141	0	0.0005894	-0.0003319	0.9995461	0	-0.00072384	0.00597000	1.00054240	0	129	507	-1926443319	-1926443319	147
4.271584	-0.025574	0.007568	-0.013855	0	0.0008469	-0.0000095	0.9990044	0	-0.00075793	0.00611806	1.00078106	0	145	507	-1279104724	-1279104724	147
4.271606	-0.019531	0.001465	-0.019165	0	0.0003662	-0.0000019	0.9991360	0	-0.00075698	0.00554419	1.00082970	0	161	506	1281029012	1281029012	147
4.295548	-0.017273	-0.002625	-0.014893	0	-0.0001736	-0.0002403	0.9995518	0	-0.00067186	0.00467730	1.00117040	0	177	506	505525283	505525283	147
4.295558	-0.013611	-0.006897	-0.001770	0	-0.0005913	-0.0004616	0.9996014	0	-0.00029492	0.00398970	1.00153446	0	193	506	-999031959	-999031959	147
4.295580	-0.000732	-0.005798	0.014038	0	-0.0004997	-0.0007839	0.9997005	0	0.00020194	0.00337172	1.00152993	0	209	506	700754513	700754513	147
4.319545	0.015503	0.002197	0.019226	0	0.0000725	-0.0009518	0.9998779	0	0.00036001	0.00309229	1.00106311	0	225	506	-1881777966	-1881777966	147
4.319556	0.017456	0.005737	0.006958	0	0.0001812	-0.0006886	0.9997120	0	0.00039625	0.00381255	1.00058341	0	241	506	-455216303	-455216303	147
4.319578	0.004395	-0.000061	-0.008606	0	-0.0004940	-0.0003586	0.9993839	0	0.00056815	0.00486875	1.00071907	0	1	506	-1780527210	-1780527210	147
4.343500	-0.003296	-0.008606	-0.016785	0	-0.0010605	-0.0001678	0.9992981	0	0.00054073	0.00525975	1.00131702	0	17	507	1510329542	1510329542	147
4.343557	0.000427	-0.011597	-0.021423	0	-0.0008526	-0.0002518	0.9994678	0	0.00014162	0.00509763	1.00141263	0	33	507	1759981305	1759981305	147
4.343566	0.004150	-0.006165	-0.021912	0	-0.0005016	-0.0007229	0.9996357	0	-0.00009799	0.00458884	1.00095820	0	49	506	-584672274	-584672274	147
4.367497	0.002747	-0.004333	-0.018127	0	-0.0004082	-0.0011578	0.9997902	0	0.00025821	0.00385785	1.00106645	0	65	506	159538949	159538949	147
4.367507	-0.000366	-0.011292	-0.019043	0	-0.0000648	-0.0010719	1.0000000	0	0.00068426	0.00337934	1.00182819	0	81	506	26427309	26427309	147
4.367559	-0.005188	-0.017212	-0.027283	0	0.0002670	-0.0006027	1.0001011	0	0.00057220	0.00337029	1.00235939	0	97	506	219882618	219882618	147
4.391497	-0.009644	-0.020203	-0.032288	0	0.0001259	-0.0002632	0.9999962	0	0.00019002	0.00347757	1.00236177	0	113	506	1895044673	1895044673	147
4.391507	-0.004883	-0.024048	-0.023376	0	-0.0001640	-0.0001526	0.9995995	0	0.00007915	0.00353074	1.00197363	0	129	506	-1014583031	-1014583031	147
4.391555	0.005920	-0.027161	-0.007812	0	-0.0004463	-0.0001144	0.9991741	0	0.00018549	0.00372577	1.00146508	0	145	506	246304028	246304028	147
4.415498	0.009644	-0.021301	-0.000610	0	-0.0006180	-0.0001698	0.9992714	0	0.00003290	0.00381899	1.00099826	0	161	506	-1894134210	-1894134210	147
4.415509	0.006653	-0.004028	-0.002197	0	-0.0004711	-0.0002937	0.9996357	0	-0.00031114	0.00363183	1.00055218	0	177	507	-862472294	-862472294	147
4.415530	0.000427	0.010498	-0.007629	0	-0.0000172	-0.0004349	0.9994831	0	-0.00014043	0.00346208	1.00049782	0	193	507	-196219151	-196219151	147
4.439423	-0.010620	0.013916	-0.017578	0	0.0006943	-0.0003014	0.9989834	0	0.00077200	0.00330281	1.00078273	0	209	507	-746175693	-746175693	147
4.439434	-0.014954	0.015320	-0.027893	0	0.0013237	0.0002861	0.9989948	0	0.00143337	0.00326324	1.00064301	0	225	507	1315927160	1315927160	147
4.439456	-0.004150	0.019409	-0.028137	0	0.0015030	0.0008144	0.9994354	0	0.00102234	0.00351214	1.00002503	0	241	506	443619709	443619709	147
4.463396	0.001587	0.014771	-0.020996	0	0.0012035	0.0009098	0.9995537	0	0.00013971	0.00356412	0.99966264	0	1	506	2034595838	2034595838	147
4.463407	-0.016296	0.001953	-0.016479	0	0.0007954	0.0006142	0.9993572	0	-0.00029016	0.00354362	0.99994349	0	17	506	-1124360176	-1124360176	147
4.463428	-0.035339	-0.003845	-0.011536	0	0.0006962	-0.0000706	0.9990673	0	0.00022650	0.00407553	1.00049949	0	33	506	1413488360	1413488360	147
4.487398	-0.029114	0.005371	-0.004883	0	0.0005131	-0.0007687	0.9986038	0	0.00107908	0.00452542	1.00088620	0	49	506	-1926142562	-1926142562	147
4.487455	-0.008118	0.024719	-0.006897	0	-0.0000553	-0.0007286	0.9983330	0	0.00074911	0.00432634	1.00106001	0	65	506	535279618	535279618	147
4.487464	0.006165	0.027283	-0.017029	0	-0.0002861	-0.0001621	0.9984245	0	-0.00034666	0.00424600	1.00125837	0	81	507	686203997	686203997	147
4.511371	0.005920	0.005127	-0.022522	0	0.0001755	0.0000515	0.9985332	0	-0.00027466	0.00431061	1.00153375	0	97	507	1663997253	1663997253	147
4.511381	-0.003174	-0.008606	-0.019714	0	0.0006180	0.0000572	0.9986515	0	0.00082135	0.00383186	1.00138807	0	113	507	-2035020743	-2035020743	147
4.511434	-0.012146	-0.007690	-0.016418	0	0.0005684	0.0001564	0.9987545	0	0.00129604	0.00342870	1.00077200	0	129	507	-1185543166	-1185543166	147
4.535351	-0.020447	-0.011963	-0.017517	0	0.0004215	0.0000896	0.9986172	0	0.00080800	0.00366330	1.00025797	0	145	506	802691400	802691400	147
4.535361	-0.025330	-0.018921	-0.017822	0	0.0003986	0.0000954	0.9984474	0	0.00030613	0.00395989	0.99974227	0	161	506	-1635425936	-1635425936	147
4.535409	-0.023560	-0.023010	-0.014404	0	0.0002251	0.0002422	0.9988346	0	0.00039363	0.00436568	0.99922442	0	177	506	159267403	159267403	147
4.559338	-0.020447	-0.018311	-0.009216	0	-0.0001392	0.0000935	0.9995995	0	0.00065184	0.00510836	0.99949861	0	193	506	-311294184	-311294184	147
4.559349	-0.015869	-0.000427	-0.003357	0	-0.0003395	-0.0001583	0.9998016	0	0.00035834	0.00544000	1.00038171	0	209	506	-1295286556	-1295286556	147
4.559359	-0.008667	0.013977	-0.001099	0	0.0000172	-0.0003815	0.9995422	0	-0.00030565	0.00502563	1.00089335	0	225	506	-310585157	-310585157	147
4.583288	-0.004333	0.019531	-0.008484	0	0.0008926	-0.0006752	0.9995461	0	-0.00040221	0.00432253	1.00110650	0	241	507	1913598185	1913598185	147
4.583299	-0.003357	0.018372	-0.019165	0	0.0015545	-0.0004768	0.9993916	0	0.00009990	0.00364876	1.00135541	0	1	507	-364880258	-364880258	147
4.583320	-0.011597	0.009460	-0.017029	0	0.0013733	0.0001621	0.9985180	0	0.00055718	0.00340772	1.00134230	0	17	507	-207931939	-207931939	147
4.607298	-0.032104	0.010498	-0.008118	0	0.0004272	0.0004711	0.9978905	0	0.00095439	0.00382710	1.00109506	0	33	507	1361296776	1361296776	147
4.607310	-0.040466	0.023926	-0.014954	0	-0.0004501	0.0004120	0.9984665	0	0.00098085	0.00427461	1.00083876	0	49	506	-1082317349	-1082317349	147
4.607332	-0.027954	0.031616	-0.032349	0	-0.0004005	0.0002728	0.9995518	0	0.00024605	0.00422430	1.00067687	0	65	506	-543488947	-543488947	147
4.631244	-0.019409	0.034302	-0.037476	0	0.0001335	0.0002060	1.0001736	0	-0.00046372	0.00404048	1.00095773	0	81	506	-967731143	-967731143	147
4.631316	-0.020996	0.033569	-0.029846	0	0.0002193	-0.0000248	1.0000134	0	-0.00069976	0.00417280	1.00139499	0	97	506	1838521367	1838521367	147
4.631325	-0.019470	0.020264	-0.024963	0	-0.0001373	-0.0006008	0.9993019	0	-0.00090718	0.00450444	1.00137329	0	113	506	1567666850	1567666850	147
4.695228	-0.014709	0.000732	-0.027466	0	-0.0004311	-0.0009575	0.9988632	0	-0.00089741	0.00464773	1.00117564	0	129	506	1623049478	1623049478	147
4.695240	-0.018188	-0.003906	-0.029053	0	-0.0005531	-0.0009499	0.9988937	0	-0.00039840	0.00452161	1.00106955	0	145	506	-2085245605	-2085245605	147
4.695300	-0.031677	0.007812	-0.022278	0	-0.0004921	-0.0010185	0.9988899	0	0.00012922	0.00443435	1.00090241	0	161	507	-1376199673	-1376199673	147
4.695310	-0.035767	0.007935	-0.010742	0	0.0000496	-0.0010738	0.9989243	0	0.00048208	0.00466061	1.00076222	0	177	507	-1056810895	-1056810895	147
4.695320	-0.018555	-0.005310	-0.010620	0	0.0005398	-0.0009575	0.9992352	0	0.00084639	0.00498676	1.00090361	0	193	507	-104994165	-104994165	147
4.695357	0.000305	-0.003113	-0.020508	0	0.0003109	-0.0008965	0.9994812	0	0.00124431	0.00511742	1.00147724	0	209	507	893839974	893839974	147
4.695366	0.006775	0.007507	-0.016418	0	-0.0001469	-0.0007935	0.9993477	0	0.00157690	0.00513434	1.00193095	0	225	506	1029375661	1029375661	147
4.695375	0.012268	0.004700	0.001099	0	-0.0004044	-0.0001621	0.9992752	0	0.00147462	0.00494528	1.00150657	0	241	506	-1995846426	-1995846426	147
4.744177	0.017883	0.003113	0.012817	0	-0.0004578	0.0006733	0.9995327	0	0.00082827	0.00427032	1.00068641	0	1	506	-1977685507	-1977685507	147
4.744240	0.010315	0.010254	0.014099	0	-0.0002918	0.0007572	0.9995327	0	0.00033784	0.00332808	1.00020456	0	17	506	-516245985	-516245985	147
4.744250	-0.009705	0.010620	0.006775	0	0.0000820	0.0002079	0.9992771	0	0.00043869	0.00281358	0.99987912	0	33	506	1976332534	1976332534	147
4.744259	-0.021912	0.011719	-0.000916	0	0.0003548	-0.0000458	0.9992504	0	0.00058961	0.00316310	0.99960041	0	49	506	1366835467	1366835467	147
4.744293	-0.016907	0.017029	-0.001282	0	0.0001068	0.0001526	0.9992218	0	0.00033164	0.00387883	0.99956584	0	65	507	1661820635	1661820635	147
4.744303	-0.013916	0.010864	-0.002686	0	-0.0002823	0.0003223	0.9990673	0	-0.00016212	0.00443602	0.99982119	0	81	507	-667218136	-667218136	147
4.808149	-0.024902	-0.001892	-0.012878	0	-0.0002785	0.0003471	0.9990253	0	-0.00051022	0.00499892	1.00036001	0	97	507	-1298663099	-1298663099	147
4.808160	-0.033142	-0.007080	-0.022400	0	-0.0000153	0.0004253	0.9990807	0	-0.00047445	0.00542212	1.00100040	0	113	507	-6707937	-6707937	147
4.808204	-0.025452	-0.002441	-0.028992	0	0.0003338	0.0006256	0.9993401	0	-0.00041246	0.00527859	1.00143600	0	129	507	-1554001166	-1554001166	147
4.808213	-0.013855	0.004395	-0.036865	0	0.0007019	0.0007477	0.9998455	0	-0.00055552	0.00456381	1.00186610	0	145	506	1248457854	1248457854	147
4.808223	-0.010803	0.008484	-0.034180	0	0.0008698	0.0003414	1.0000019	0	-0.00054002	0.00392628	1.00235176	0	161	506	-826821461	-826821461	147
4.808232	-0.012573	0.008423	-0.023560	0	0.0006580	-0.0004826	0.9996357	0	-0.00040865	0.00399208	1.00202608	0	177	506	383543376	383543376	147
4.808273	-0.017639	0.006775	-0.022949	0	0.0003242	-0.0007858	0.9994640	0	-0.00038052	0.00432301	1.00075650	0	193	506	-7950808	-7950808	147
4.808282	-0.022034	0.011658	-0.024841	0	0.0002460	-0.0002251	0.9996166	0	-0.00025654	0.00426316	1.00001669	0	209	506	-1599757325	-1599757325	147
4.832108	-0.019897	0.020752	-0.018738	0	0.0001602	0.0002995	0.9994678	0	0.00009036	0.00382423	1.00067544	0	225	507	-368675341	-368675341	147
4.832156	-0.016479	0.027344	-0.014099	0	-0.0002918	0.0002499	0.9991894	0	0.00053883	0.00335431	1.00166368	0	241	507	-1974884585	-1974884585	147
4.832165	-0.010315	0.023438	-0.012329	0	-0.0008354	0.0001049	0.9992123	0	0.00084066	0.00334620	1.00196815	0	1	507	1540278821	1540278821	147
4.856084	0.000244	0.003296	-0.010864	0	-0.0011349	0.0000286	0.9991093	0	0.00083899	0.00375271	1.00168943	0	17	507	-62607772	-62607772	147
4.856095	-0.000793	-0.016968	-0.013855	0	-0.0013027	-0.0001259	0.9989204	0	0.00060153	0.00383472	1.00098157	0	33	506	-102040694	-102040694	147
4.856148	-0.013062	-0.014526	-0.012878	0	-0.0014839	-0.0003357	0.9990234	0	0.00030279	0.00343108	1.00026321	0	49	506	-1069526836	-1069526836	147
4.880060	-0.014465	0.006897	-0.005432	0	-0.0015907	-0.0005035	0.9990597	0	0.00027966	0.00317764	0.99996829	0	65	505	1088302648	1088302648	147
4.880071	-0.004028	0.017944	-0.005676	0	-0.0014935	-0.0003452	0.9990540	0	0.00042462	0.00336957	0.99976969	0	81	506	45780439	45780439	147
4.880119	0.000610	0.008972	-0.010315	0	-0.0010433	0.0000782	0.9992867	0	0.00006986	0.00385141	0.99963427	0	97	506	226523686	226523686	147
4.904067	-0.003235	0.002808	-0.012207	0	-0.0003300	0.0003395	0.9995823	0	-0.00061202	0.00434661	0.99998188	0	113	506	-703221471	-703221471	147
4.904080	-0.008789	0.004395	-0.016785	0	0.0002594	0.0001736	0.9998531	0	-0.00049067	0.00455785	1.00066662	0	129	507	-309344214	-309344214	147
4.904102	-0.017517	0.000854	-0.021240	0	0.0005608	-0.0002270	0.9999256	0	0.00060415	0.00465441	1.00124741	0	145	507	-1117469628	-1117469628	147
4.928037	-0.025452	-0.002197	-0.024841	0	0.0003605	-0.0002956	0.9996128	0	0.00140452	0.00509715	1.00134921	0	161	507	-638582950	-638582950	147
4.928047	-0.020447	-0.000488	-0.030518	0	-0.0004539	-0.0001049	0.9991226	0	0.00125456	0.00577497	1.00092030	0	177	507	883970309	883970309	147
4.928057	-0.010620	0.002197	-0.032959	0	-0.0011902	-0.0001488	0.9988213	0	0.00078773	0.00599408	1.00070739	0	193	506	1773340743	1773340743	147
4.952015	-0.009033	0.007263	-0.029297	0	-0.0014172	-0.0003376	0.9989319	0	0.00050282	0.00569367	1.00108004	0	209	506	-1695972497	-1695972497	147
4.952074	-0.010559	0.008423	-0.025818	0	-0.0014782	-0.0005112	0.9992771	0	0.00049996	0.00526905	1.00115395	0	225	506	-823663317	-823663317	147
4.952083	-0.011108	0.000732	-0.024475	0	-0.0013199	-0.0006886	0.9994907	0	0.00073504	0.00449371	1.00052357	0	241	506	-1751477219	-1751477219	147
4.976008	-0.014343	-0.010925	-0.021057	0	-0.0006886	-0.0006866	0.9995174	0	0.00081015	0.00374579	1.00015903	0	1	506	439321972	439321972	147
4.976056	-0.018982	-0.015320	-0.021179	0	-0.0000267	-0.0002728	0.9993324	0	0.00064468	0.00392532	1.00068498	0	17	506	-1246643480	-1246643480	147
4.976066	-0.015137	-0.002075	-0.022461	0	0.0001316	0.0004253	0.9991608	0	0.00055742	0.00457430	1.00132108	0	33	506	-2066247201	-2066247201	147
4.999987	-0.001953	0.015747	-0.014038	0	-0.0001774	0.0009384	0.9995537	0	0.00042129	0.00492454	1.00132775	0	49	507	1515699961	1515699961	147
4.999997	0.003845	0.015930	-0.002991	0	-0.0004139	0.0009575	1.0001392	0	0.00001955	0.00499368	1.00121403	0	65	507	-1903813896	-1903813896	147
5.000052	0.001831	0.005371	0.003296	0	-0.0002346	0.0003986	1.0001869	0	-0.00034904	0.00482368	1.00131321	0	81	507	-29841970	-29841970	147
5.023962	0.010986	0.003296	0.003784	0	-0.0000420	-0.0003929	1.0000534	0	-0.00029922	0.00463223	1.00122452	0	97	507	1321895365	1321895365	147
5.023975	0.021423	0.011902	0.003296	0	-0.0001850	-0.0007229	0.9999905	0	-0.00003767	0.00480676	1.00100589	0	113	507	190315276	190315276	147
5.024024	0.010803	0.020264	0.007568	0	-0.0003986	-0.0006676	0.9995003	0	0.00003099	0.00511003	1.00089836	0	129	506	1086308574	1086308574	147
5.047947	-0.006897	0.014526	0.007446	0	-0.0003071	-0.0006065	0.9990482	0	0.00032735	0.00512362	1.00098252	0	145	506	-859739711	-859739711	147
5.047958	-0.009949	-0.003540	-0.000366	0	-0.0001278	-0.0003052	0.9993496	0	0.00119805	0.00504780	1.00109744	0	161	506	1688378652	1688378652	147
5.047968	-0.006470	-0.011353	-0.005798	0	-0.0003681	0.0002460	0.9997177	0	0.00183654	0.00506687	1.00091410	0	177	506	1507491540	1507491540	147
5.071941	-0.016724	0.002625	-0.009705	0	-0.0005932	0.0005322	0.9996033	0	0.00158215	0.00496340	1.00086665	0	193	506	-710175420	-710175420	147
5.071952	-0.034485	0.020142	-0.019043	0	-0.0003548	0.0001965	0.9994621	0	0.00078440	0.00480723	1.00136518	0	209	506	-598866819	-598866819	147
5.071974	-0.031067	0.022278	-0.023254	0	-0.0004768	-0.0003662	0.9993744	0	0.00012875	0.00470781	1.00172949	0	225	507	1177046261	1177046261	147
5.095913	-0.010986	0.013550	-0.018433	0	-0.0009727	-0.0002861	0.9991932	0	0.00003433	0.00454092	1.00143313	0	241	507	565770796	565770796	147
5.095967	-0.002747	0.008789	-0.020508	0	-0.0009117	0.0003319	0.9992123	0	0.00016403	0.00467443	1.00087500	0	1	507	-340351254	-340351254	147
5.095977	-0.006470	0.006775	-0.025879	0	-0.0005360	0.0005894	0.9991760	0	0.00007820	0.00511646	1.00050545	0	17	506	329722419	329722419	147
5.119862	-0.005981	-0.000183	-0.024170	0	-0.0004463	0.0003567	0.9986725	0	0.00005221	0.00515318	1.00038552	0	33	506	104653602	104653602	147
5.119914	0.001770	-0.001953	-0.019592	0	-0.0005207	0.0001755	0.9983788	0	0.00024271	0.00485444	1.00037670	0	49	506	-360078311	-360078311	147
5.119924	0.003235	0.002930	-0.010803	0	-0.0002174	0.0003548	0.9987946	0	0.00043797	0.00454164	1.00025749	0	65	506	393404794	393404794	147
5.143867	-0.008606	0.000793	-0.003235	0	0.0005875	0.0005836	0.9992123	0	0.00056434	0.00417709	0.99997544	0	81	506	1184451956	1184451956	147
5.143880	-0.019592	-0.004639	-0.005493	0	0.0009804	0.0004349	0.9992161	0	0.00048375	0.00406432	0.99987674	0	97	506	-1469877197	-1469877197	147
5.143947	-0.026428	0.005432	-0.005798	0	0.0004063	0.0000458	0.9992695	0	0.00025797	0.00429249	1.00016594	0	113	507	1428230034	1428230034	147
5.167838	-0.032959	0.020996	0.000305	0	-0.0001774	-0.0002060	0.9993458	0	0.00032210	0.00446844	1.00040650	0	129	507	-118211776	-118211776	147
5.167848	-0.028320	0.011292	-0.002747	0	0.0000381	-0.0004139	0.9991360	0	0.00043130	0.00447035	1.00033307	0	145	507	1653669140	1653669140	147
5.167858	-0.018677	-0.017517	-0.016174	0	0.0006123	-0.0006828	0.9990349	0	-0.00008726	0.00451899	1.00041318	0	161	506	-2140031261	-2140031261	147
5.191815	-0.019470	-0.033691	-0.017273	0	0.0009842	-0.0005951	0.9990654	0	-0.00065327	0.00469708	1.00079632	0	177	506	-2012895055	-2012895055	147
5.191829	-0.027649	-0.022339	0.001221	0	0.0009689	-0.0001640	0.9991131	0	-0.00049186	0.00484657	1.00093699	0	193	506	969414442	969414442	147
5.191838	-0.038513	-0.001953	0.016968	0	0.0006275	0.0000420	0.9997883	0	-0.00038266	0.00495458	1.00084281	0	209	506	44785988	44785988	147
5.215786	-0.043030	0.004883	0.015259	0	0.0002289	-0.0001335	1.0004444	0	-0.00086546	0.00505257	1.00091362	0	225	506	1781876857	1781876857	147
5.215797	-0.031189	0.009949	0.005859	0	-0.0002174	-0.0005741	0.9999943	0	-0.00113225	0.00499463	1.00086117	0	241	506	22579256	22579256	147
5.215806	-0.018799	0.025146	-0.000732	0	-0.0006447	-0.0010605	0.9992390	0	-0.00084972	0.00500441	1.00051641	0	1	506	-941316004	-941316004	147
5.239788	-0.017761	0.035400	-0.006470	0	-0.0006256	-0.0013924	0.9990616	0	-0.00043488	0.00520015	1.00046611	0	17	507	935273430	935273430	147
5.239846	-0.011169	0.028076	-0.007751	0	-0.0001602	-0.0015106	0.9991055	0	0.00020623	0.00512171	1.00091434	0	33	507	79039916	79039916	147
5.239856	0.000977	0.010986	-0.002136	0	0.0002499	-0.0011139	0.9989471	0	0.00118971	0.00496221	1.00121737	0	49	507	-533255667	-533255667	147
5.263736	-0.002747	0.001404	-0.003052	0	0.0005169	-0.0000839	0.9988556	0	0.00177121	0.00518417	1.00096393	0	65	507	-1736641622	-1736641622	147
5.263786	-0.014465	0.006836	-0.013428	0	0.0007801	0.0008202	0.9992657	0	0.00149894	0.00525570	1.00060964	0	81	506	954113651	954113651	147
5.263796	-0.010620	0.015808	-0.019775	0	0.0008755	0.0008488	0.9998112	0	0.00100398	0.00488734	1.00076556	0	97	506	792147196	792147196	147
5.287710	-0.000427	0.016541	-0.015076	0	0.0008831	0.0002708	1.0000076	0	0.00086451	0.00468588	1.00123811	0	113	506	1753152347	1753152347	147
5.287720	-0.002014	0.015625	-0.005066	0	0.0008106	-0.0003929	0.9998302	0	0.00093675	0.00460243	1.00138903	0	129	506	1480114805	1480114805	147
5.287774	-0.007019	0.018066	0.002380	0	0.0004330	-0.0008965	0.9994926	0	0.00086880	0.00407743	1.00114274	0	145	506	1703687698	1703687698	147
5.311720	-0.006958	0.015442	0.006714	0	-0.0001431	-0.0009937	0.9994164	0	0.00070214	0.00338769	1.00078154	0	161	506	-974928027	-974928027	147
5.311731	-0.012878	0.007202	0.007751	0	-0.0006847	-0.0007801	0.9995461	0	0.00075984	0.00319266	1.00048423	0	177	506	1679080791	1679080791	147
5.311740	-0.026489	-0.004517	0.001160	0	-0.0006523	-0.0004864	0.9994583	0	0.00087023	0.00369763	1.00039911	0	193	506	1689771441	1689771441	147
5.335695	-0.027466	-0.015869	-0.015015	0	0.0001850	0.0000362	0.9992752	0	0.00063086	0.00447154	1.00050545	0	209	507	1338097567	1338097567	147
5.335706	-0.013489	-0.008606	-0.028870	0	0.0008106	0.0007896	0.9992199	0	0.00027180	0.00481582	1.00066948	0	225	507	1067829018	1067829018	147
5.335716	-0.009888	0.014526	-0.027771	0	0.0005951	0.0011234	0.9991455	0	0.00016928	0.00473833	1.00082254	0	241	507	297503553	297503553	147
5.359639	-0.019714	0.024963	-0.020142	0	0.0002556	0.0005875	0.9991875	0	0.00017214	0.00451040	1.00097179	0	1	506	1792839383	1792839383	147
5.359650	-0.022278	0.017578	-0.017517	0	0.0003204	-0.0002861	0.9995461	0	-0.00010538	0.00387239	1.00121856	0	17	506	682840556	682840556	147
5.359659	-0.018372	0.009094	-0.017456	0	0.0003700	-0.0006943	0.9998131	0	-0.00055337	0.00307250	1.00127196	0	33	506	1680987797	1680987797	147
5.383639	-0.020691	0.004578	-0.016235	0	-0.0000057	-0.0004215	0.9998207	0	-0.00065899	0.00301838	1.00072932	0	49	506	995198697	995198697	147
5.383702	-0.025208	0.000061	-0.012146	0	-0.0005283	0.0000401	0.9998436	0	-0.00041676	0.00368690	1.00017071	0	65	506	-682476769	-682476769	147
5.383711	-0.026367	-0.006897	-0.003296	0	-0.0004864	0.0000095	0.9996414	0	-0.00016117	0.00413990	1.00003862	0	81	507	-1397705297	-1397705297	147
5.407612	-0.022278	-0.015381	0.006042	0	0.0002060	-0.0006466	0.9991474	0	-0.00001311	0.00397420	0.99967575	0	97	507	542125759	542125759	147
5.407623	-0.015015	-0.017822	0.002380	0	0.0006599	-0.0014744	0.9989758	0	0.00000286	0.00371790	0.99901628	0	113	507	68568988	68568988	147
5.407676	-0.016357	-0.009949	-0.018372	0	0.0007114	-0.0018291	0.9990940	0	-0.00012159	0.00387955	0.99868917	0	129	507	1452355187	1452355187	147
5.431591	-0.025146	0.000000	-0.035828	0	0.0009499	-0.0015755	0.9992046	0	-0.00037050	0.00419903	0.99870443	0	145	507	-243679978	-243679978	147
5.431603	-0.025208	-0.003357	-0.031311	0	0.0010109	-0.0010891	0.9995136	0	-0.00054979	0.00421500	0.99892187	0	161	506	-1975294725	-1975294725	147
5.431667	-0.022034	-0.016663	-0.014160	0	0.0006046	-0.0007305	0.9998016	0	-0.00031257	0.00380540	0.99964738	0	177	506	-1440273979	-1440273979	147
5.455564	-0.029358	-0.014954	-0.009033	0	0.0002785	-0.0007896	0.9998322	0	0.00016284	0.00338078	1.00074267	0	193	506	-843689915	-843689915	147
5.455575	-0.031555	-0.001892	-0.020020	0	0.0001602	-0.0011101	0.9999161	0	0.00039339	0.00359583	1.00117850	0	209	506	1343123884	1343123884	147
5.455585	-0.018799	-0.006165	-0.023987	0	0.0002422	-0.0010738	1.0001411	0	0.00045323	0.00448585	1.00048351	0	225	506	-495191835	-495191835	147
5.479540	-0.012268	-0.020264	-0.015747	0	0.0006580	-0.0005875	1.0000973	0	0.00040722	0.00547075	0.99960923	0	241	506	-163001210	-163001210	147
5.479551	-0.017090	-0.012085	-0.010437	0	0.0009518	-0.0002098	0.9995041	0	0.00000381	0.00590086	0.99951768	0	1	507	-1383826172	-1383826172	147
5.479561	-0.016846	0.007019	-0.010010	0	0.0009289	-0.0000534	0.9989529	0	-0.00030541	0.00568533	1.00007010	0	17	507	-1127987261	-1127987261	147
5.503513	-0.009521	0.005859	-0.008850	0	0.0008392	0.0001926	0.9991322	0	0.00020647	0.00491905	1.00070381	0	33	507	-1898488832	-1898488832	147
5.503524	-0.003479	-0.005127	-0.007751	0	0.0005608	0.0004749	0.9995975	0	0.00117755	0.00376964	1.00107503	0	49	506	1079722657	1079722657	147
5.503533	-0.008362	-0.002808	-0.012573	0	0.0003090	0.0005150	0.9997444	0	0.00171590	0.00333977	1.00108790	0	65	506	-1116740612	-1116740612	147
5.527499	-0.022522	0.007935	-0.022339	0	0.0003414	0.0001106	0.9996758	0	0.00146937	0.00409031	1.00101924	0	81	505	-682371086	-682371086	147
5.527564	-0.024780	0.016541	-0.030029	0	0.0001488	-0.0003510	0.9995499	0	0.00061250	0.00493217	1.00112772	0	97	506	-1903257169	-1903257169	147
5.527574	-0.016296	0.026123	-0.031372	0	-0.0002441	-0.0004482	0.9994812	0	-0.00043488	0.00527048	1.00120521	0	113	506	1760322525	1760322525	147
5.551490	-0.013550	0.034668	-0.023132	0	-0.0002556	-0.0005589	0.9997406	0	-0.00108051	0.00533009	1.00108075	0	129	506	-2032840854	-2032840854	147
5.551540	-0.013550	0.033386	-0.010498	0	-0.0001640	-0.0006580	1.0000038	0	-0.00072789	0.00511312	1.00111771	0	145	506	620626415	620626415	147
5.551549	-0.011292	0.028503	-0.010681	0	-0.0004559	-0.0002956	0.9995785	0	0.00037646	0.00465846	1.00144958	0	161	507	1198319500	1198319500	147
5.575492	-0.002869	0.024841	-0.027466	0	-0.0008163	0.0000362	0.9988041	0	0.00126910	0.00412583	1.00162482	0	177	507	77388121	77388121	147
5.575503	0.006104	0.013550	-0.039612	0	-0.0006104	-0.0003414	0.9985085	0	0.00161290	0.00371361	1.00158668	0	193	507	333520888	333520888	147
5.575556	0.002502	0.003052	-0.038147	0	-0.0001373	-0.0007210	0.9984741	0	0.00166249	0.00388837	1.00153875	0	209	507	-480249927	-480249927	147
5.599488	-0.004578	0.007935	-0.034668	0	-0.0003471	-0.0002041	0.9983387	0	0.00150323	0.00452018	1.00122404	0	225	506	-1112567691	-1112567691	147
5.599499	-0.005798	0.012146	-0.028320	0	-0.0008984	0.0005302	0.9987469	0	0.00099754	0.00479627	1.00058079	0	241	506	282747122	282747122	147
5.599520	-0.008423	0.003479	-0.017395	0	-0.0008564	0.0005341	0.9995155	0	0.00046253	0.00454712	1.00042748	0	1	506	-544976693	-544976693	147
5.623416	-0.010925	-0.005676	-0.016846	0	-0.0004463	0.0000706	0.9996567	0	0.00060916	0.00435019	1.00123715	0	17	506	491245449	491245449	147
5.623426	-0.012939	-0.009338	-0.030701	0	-0.0002213	-0.0001431	0.9993877	0	0.00110269	0.00438380	1.00217152	0	33	506	255687047	255687047	147
5.623447	-0.029724	-0.009460	-0.037415	0	-0.0002499	-0.0000706	0.9991322	0	0.00089836	0.00427341	1.00240517	0	49	506	1552958902	1552958902	147
5.647389	-0.049500	-0.008301	-0.031433	0	-0.0003262	-0.0001278	0.9988079	0	-0.00005269	0.00400281	1.00191617	0	65	506	1463306585	1463306585	147
5.647400	-0.047119	-0.005920	-0.033020	0	-0.0001564	-0.0003986	0.9985962	0	-0.00088406	0.00376558	1.00114846	0	81	507	-925595220	-925595220	147
5.647422	-0.041687	-0.001831	-0.040527	0	0.0002098	-0.0008068	0.9984226	0	-0.00102711	0.00366235	1.00087810	0	97	507	-929664053	-929664053	147
5.671367	-0.045349	0.000244	-0.036255	0	0.0004044	-0.0010300	0.9979248	0	-0.00073242	0.00364733	1.00101042	0	113	507	-1754567966	-1754567966	147
5.671433	-0.037170	0.002502	-0.025085	0	0.0001659	-0.0006447	0.9976654	0	-0.00047469	0.00356030	1.00064445	0	129	506	2047831401	2047831401	147
5.671442	-0.021545	0.011353	-0.020203	0	-0.0003414	-0.0002117	0.9986172	0	-0.00040364	0.00378561	1.00026441	0	145	506	645360959	645360959	147
5.695338	-0.016663	0.021545	-0.016968	0	-0.0006332	-0.0002995	1.0000572	0	-0.00053716	0.00450659	1.00077772	0	161	506	-920429465	-920429465	147
5.695385	-0.017273	0.020447	-0.013489	0	-0.0004311	-0.0004978	1.0004082	0	-0.00068903	0.00516629	1.00140429	0	177	506	-1611735036	-1611735036	147
5.695395	-0.011902	0.002808	-0.019409	0	0.0001659	-0.0005398	1.0002003	0	-0.00040174	0.00544333	1.00129747	0	193	506	518070816	518070816	147
5.719315	-0.003723	-0.020447	-0.025818	0	0.0008297	-0.0003147	1.0005569	0	0.00051045	0.00529838	1.00105953	0	209	506	-1127080752	-1127080752	147
5.719326	0.001465	-0.031189	-0.020630	0	0.0009270	0.0001755	1.0005188	0	0.00149632	0.00497842	1.00107908	0	225	506	-681424335	-681424335	147
5.719380	0.005371	-0.035645	-0.016663	0	0.0003204	0.0002136	0.9995861	0	0.00173950	0.00497055	1.00083876	0	241	507	-2107545510	-2107545510	147
5.743294	0.003845	-0.040222	-0.020630	0	-0.0001354	-0.0001984	0.9988098	0	0.00133801	0.00503707	1.00049233	0	1	507	742424213	742424213	147
5.743304	-0.001709	-0.027649	-0.019714	0	-0.0001297	-0.0002975	0.9984188	0	0.00101328	0.00461698	1.00065327	0	17	507	608470519	608470519	147
5.743314	0.004333	0.000610	-0.018250	0	-0.0002880	-0.0002441	0.9983845	0	0.00078297	0.00427318	1.00121522	0	33	507	-2075038304	-2075038304	147
5.807250	0.016296	0.022583	-0.023376	0	-0.0009003	-0.0002785	0.9988594	0	0.00028205	0.00464344	1.00204515	0	49	506	1778423903	1778423903	147
5.807262	0.013306	0.026062	-0.024963	0	-0.0015125	-0.0001793	0.9991722	0	-0.00028539	0.00502515	1.00294828	0	65	506	-167046500	-167046500	147
5.807271	-0.000671	0.013916	-0.025085	0	-0.0015984	-0.0002689	0.9990997	0	-0.00050068	0.00507092	1.00284243	0	81	506	-1807625483	-1807625483	147
5.807322	-0.013000	-0.003723	-0.026550	0	-0.0013046	-0.0008011	0.9992676	0	-0.00051641	0.00523114	1.00172830	0	97	506	1431687748	1431687748	147
5.807332	-0.019043	-0.018005	-0.021606	0	-0.0010052	-0.0011177	0.9993553	0	-0.00068569	0.00518990	1.00121188	0	113	506	115187973	115187973	147
5.807341	-0.014221	-0.020325	-0.015076	0	-0.0007973	-0.0005512	0.9989033	0	-0.00076580	0.00461245	1.00137424	0	129	506	1291985001	1291985001	147
5.807350	-0.007385	-0.013489	-0.009949	0	-0.0007458	0.0003223	0.9988842	0	-0.00042439	0.00398445	1.00118613	0	145	507	-1566074076	-1566074076	147
5.807389	-0.014832	-0.006897	-0.005310	0	-0.0010071	0.0004368	0.9994831	0	0.00021648	0.00371313	1.00083160	0	161	507	501689043	501689043	147
5.856197	-0.024475	0.003662	-0.010986	0	-0.0014191	-0.0000858	0.9994106	0	0.00088573	0.00394225	1.00072551	0	177	507	-73810790	-73810790	147
5.856208	-0.014465	0.016907	-0.027039	0	-0.0013618	-0.0004311	0.9989796	0	0.00124002	0.00458479	1.00071073	0	193	507	-166260355	-166260355	147
5.856260	0.002808	0.012634	-0.039307	0	-0.0008354	-0.0004025	0.9992580	0	0.00115609	0.00496459	1.00083709	0	209	506	873780988	873780988	147
5.856270	0.008545	-0.004089	-0.040039	0	-0.0004292	-0.0001965	0.9995594	0	0.00074244	0.00481510	1.00134540	0	225	506	1319193525	1319193525	147
5.856279	0.006836	-0.003845	-0.036621	0	-0.0003490	-0.0000381	0.9993668	0	0.00025463	0.00473785	1.00175643	0	241	506	930672219	930672219	147
5.856289	0.002380	0.005737	-0.040405	0	-0.0005169	-0.0000973	0.9991531	0	0.00027871	0.00490522	1.00154400	0	1	506	-726813689	-726813689	147
5.920147	0.000061	-0.002014	-0.043518	0	-0.0006428	-0.0002651	0.9989738	0	0.00061607	0.00493884	1.00129104	0	17	506	-1581727915	-1581727915	147
5.920158	0.005615	-0.023743	-0.037354	0	-0.0004253	-0.0003796	0.9990044	0	0.00035763	0.00473833	1.00128531	0	33	506	-767890092	-767890092	147
5.920167	0.012085	-0.037842	-0.032166	0	-0.0000572	-0.0003071	0.9994068	0	-0.00040030	0.00462198	1.00112653	0	49	507	1462399340	1462399340	147
5.920189	0.013245	-0.026733	-0.033875	0	0.0002460	-0.0001755	0.9995956	0	-0.00090766	0.00477695	1.00088525	0	65	507	-1363033356	-1363033356	147
5.920233	0.011292	0.004272	-0.034851	0	0.0004482	-0.0003338	0.9993725	0	-0.00062585	0.00486112	1.00068307	0	81	507	1422307532	1422307532	147
5.920243	0.009949	0.023560	-0.028564	0	0.0002251	-0.0004997	0.9994965	0	0.00062156	0.00451970	1.00057292	0	97	507	2061751543	2061751543	147
5.920252	0.011230	0.021362	-0.024658	0	-0.0004883	-0.0004272	1.0000896	0	0.00180387	0.00409865	1.00075603	0	113	506	-1365051941	-1365051941	147
5.920285	0.009338	0.024048	-0.030457	0	-0.0009785	-0.0004120	1.0000610	0	0.00188184	0.00418139	1.00101352	0	129	506	-1583727845	-1583727845	147
5.944111	-0.002014	0.028748	-0.036987	0	-0.0007019	-0.0005245	0.9993229	0	0.00156260	0.00440764	1.00123596	0	145	506	274324868	274324868	147
5.944121	-0.015808	0.010986	-0.036316	0	0.0000496	-0.0007133	0.9989891	0	0.00139689	0.00413609	1.00190639	0	161	506	-1189416628	-1189416628	147
5.944130	-0.023315	-0.013550	-0.026306	0	0.0006847	-0.0008183	0.9990711	0	0.00097132	0.00352240	1.00275660	0	177	506	-790089191	-790089191	147
5.968096	-0.022766	-0.023315	-0.015259	0	0.0009918	-0.0006371	0.9991379	0	0.00046134	0.00320911	1.00276685	0	193	506	203537915	203537915	147
5.968106	-0.014832	-0.019714	-0.012329	0	0.0011864	-0.0004349	0.9994602	0	0.00019741	0.00372958	1.00196958	0	209	506	-271610068	-271610068	147
5.968116	-0.010803	-0.004944	-0.020386	0	0.0012817	-0.0004063	0.9997101	0	0.00023031	0.00474000	1.00131702	0	225	507	1391988717	1391988717	147
5.992085	-0.016663	0.011353	-0.037048	0	0.0011520	-0.0004292	0.9994392	0	0.00065899	0.00548100	1.00105190	0	241	507	1943190110	1943190110	147
5.992096	-0.018799	0.019958	-0.043152	0	0.0009842	-0.0004234	0.9992599	0	0.00124216	0.00576019	1.00071883	0	1	507	-1627931304	-1627931304	147
5.992105	-0.009460	0.018616	-0.026917	0	0.0009346	-0.0002537	0.9992523	0	0.00163627	0.00553966	1.00014353	0	17	507	-169944033	-169944033	147
6.016062	0.000671	0.005493	-0.007874	0	0.0008793	-0.0000477	0.9989433	0	0.00184512	0.00488806	0.99963021	0	33	506	-450196991	-450196991	147
6.016118	0.000916	-0.003601	-0.007324	0	0.0005932	-0.0001030	0.9988899	0	0.00196505	0.00417423	0.99962449	0	49	506	279547934	279547934	147
6.016127	0.000610	0.007019	-0.018005	0	0.0001984	-0.0001907	0.9993877	0	0.00208831	0.00370049	1.00007939	0	65	506	-1108136901	-1108136901	147
6.040042	0.008362	0.024658	-0.023010	0	-0.0000496	-0.0002480	0.9994946	0	0.00200558	0.00405073	1.00054789	0	81	506	77464738	77464738	147
6.040052	0.010864	0.027100	-0.021790	0	-0.0001431	-0.0004196	0.9990597	0	0.00114751	0.00530100	1.00072861	0	97	506	-334145093	-334145093	147
6.040106	0.004883	0.010925	-0.015991	0	-0.0000610	-0.0003357	0.9989185	0	-0.00019884	0.00601983	1.00062275	0	113	506	-781349884	-781349884	147
6.064037	-0.000305	-0.003723	-0.005493	0	0.0000610	-0.0000401	0.9988365	0	-0.00082731	0.00543261	1.00043797	0	129	507	-2119055811	-2119055811	147
6.064047	-0.009277	-0.009949	-0.003601	0	0.0000744	0.0000916	0.9983654	0	-0.00037575	0.00441694	1.00036907	0	145	507	-162567194	-162567194	147
6.064099	-0.015320	-0.018616	-0.014404	0	-0.0000553	0.0000420	0.9982243	0	0.00037122	0.00364709	1.00015378	0	161	506	-1113143853	-1113143853	147
6.088023	-0.007263	-0.022339	-0.021423	0	-0.0003910	-0.0003662	0.9986725	0	0.00087619	0.00341344	0.99955606	0	177	507	-364998900	-364998900	147
6.088033	-0.005798	-0.015991	-0.017944	0	-0.0007324	-0.0007648	0.9988937	0	0.00085282	0.00392389	0.99941754	0	193	506	-1210950022	-1210950022	147
6.088055	-0.016724	-0.012878	-0.011414	0	-0.0007095	-0.0005131	0.9987564	0	0.00013876	0.00454259	1.00013280	0	209	506	-811149914	-811149914	147
6.112000	-0.012817	-0.013245	-0.003296	0	-0.0002708	-0.0000553	0.9989605	0	-0.00051022	0.00432920	1.00073457	0	225	506	1743741173	1743741173	147
6.112011	0.006104	-0.001526	-0.001160	0	0.0000629	-0.0000668	0.9995365	0	-0.00046349	0.00351095	1.00078750	0	241	506	740421552	740421552	147
6.112032	0.013123	0.017517	-0.013245	0	0.0001087	-0.0004845	0.9999733	0	0.00018311	0.00316453	1.00080228	0	1	506	482969286	482969286	147
6.135973	0.006165	0.018616	-0.024597	0	0.0003433	-0.0007629	0.9999847	0	0.00100708	0.00341558	1.00087452	0	17	506	-230816662	-230816662	147
6.135984	0.001587	0.008484	-0.025024	0	0.0005741	-0.0004559	0.9994392	0	0.00128174	0.00379300	1.00060987	0	33	507	103429655	103429655	147
6.136006	-0.002808	0.013123	-0.023376	0	0.0004807	-0.0000629	0.9988556	0	0.00109291	0.00423169	1.00042367	0	49	507	1291822653	1291822653	147
6.159958	-0.011902	0.023865	-0.020935	0	0.0004044	-0.0004501	0.9988384	0	0.00087667	0.00440168	1.00097060	0	65	507	-865344556	-865344556	147
6.160023	-0.012207	0.023560	-0.012817	0	0.0001869	-0.0009594	0.9988823	0	0.00047040	0.00455117	1.00158572	0	81	507	2129554288	2129554288	147
6.160033	0.004883	0.018860	-0.007202	0	-0.0003357	-0.0008545	0.9986362	0	0.00018430	0.00524926	1.00138688	0	97	506	-194409269	-194409269	147
6.183923	0.019043	0.017639	-0.014099	0	-0.0004616	-0.0008163	0.9986649	0	0.00040460	0.00570440	1.00086212	0	113	506	-448001555	-448001555	147
6.183934	0.008789	0.011719	-0.023682	0	-0.0000420	-0.0009136	0.9990387	0	0.00064421	0.00552011	1.00086617	0	129	506	-201153944	-201153944	147
6.183989	-0.013672	-0.001099	-0.022339	0	0.0002575	-0.0007801	0.9993343	0	0.00074506	0.00529766	1.00132489	0	145	506	1186927406	1186927406	147
6.207900	-0.024414	-0.005249	-0.016357	0	0.0002670	-0.0006237	0.9996262	0	0.00106311	0.00497103	1.00184464	0	161	506	-1565693292	-1565693292	147
6.207912	-0.022278	-0.001953	-0.017944	0	0.0002861	-0.0005131	0.9998798	0	0.00141954	0.00423837	1.00191736	0	177	506	-332292322	-332292322	147
6.207965	-0.016846	-0.009705	-0.022095	0	0.0002346	-0.0004120	0.9996166	0	0.00157905	0.00326371	1.00116801	0	193	506	982468608	982468608	147
6.231873	-0.010681	-0.024048	-0.018860	0	-0.0001621	-0.0003910	0.9990654	0	0.00155687	0.00263834	1.00039864	0	209	507	-151700729	-151700729	147
6.231884	-0.005554	-0.024414	-0.012146	0	-0.0007877	-0.0005226	0.9989700	0	0.00126147	0.00301480	1.00028229	0	225	507	-1994124823	-1994124823	147
6.231893	0.001160	-0.011169	-0.005615	0	-0.0012283	-0.0006409	0.9993019	0	0.00062799	0.00384307	1.00045657	0	241	507	-1410806725	-1410806725	147
6.255849	0.007751	-0.002014	0.000122	0	-0.0010548	-0.0004005	0.9995403	0	-0.00014782	0.00399351	1.00081277	0	1	506	-1696945265	-1696945265	147
6.255860	0.008545	-0.002747	-0.004333	0	-0.0003777	-0.0000191	0.9994144	0	-0.00058413	0.00366402	1.00109410	0	17	506	-361972982	-361972982	147
6.255870	0.006958	-0.006470	-0.017883	0	0.0001183	-0.0001831	0.9992962	0	-0.00044489	0.00372195	1.00103903	0	33	506	1560509619	1560509619	147
6.279829	0.002991	-0.006042	-0.021729	0	0.0001640	-0.0006962	0.9996014	0	-0.00004458	0.00419855	1.00111866	0	49	506	600012761	600012761	147
6.279841	-0.001221	0.005981	-0.015808	0	0.0002537	-0.0007362	0.9997883	0	0.00016379	0.00440550	1.00115991	0	65	506	991144876	991144876	147
6.279851	-0.001953	0.020996	-0.015259	0	0.0007954	-0.0003281	0.9994202	0	-0.00007224	0.00412512	1.00066423	0	81	506	-639663568	-639663568	147
6.303775	-0.005310	0.022400	-0.022827	0	0.0012474	-0.0000782	0.9991016	0	-0.00041294	0.00387883	1.00015640	0	97	507	897366384	897366384	147
6.303845	-0.010193	0.016418	-0.027039	0	0.0008068	0.0000477	0.9992867	0	-0.00016427	0.00388741	1.00021005	0	113	507	1214709802	1214709802	147
6.303854	-0.012878	0.013916	-0.017578	0	-0.0003796	0.0001221	0.9995632	0	0.00060034	0.00406122	1.00066757	0	129	507	-2091601591	-2091601591	147
6.327778	-0.021057	0.008850	-0.008179	0	-0.0013332	-0.0002975	0.9997330	0	0.00111938	0.00447726	1.00115252	0	145	507	1777304214	1777304214	147
6.327788	-0.031494	-0.000366	-0.015076	0	-0.0012646	-0.0008049	0.9999008	0	0.00094056	0.00497127	1.00152969	0	161	507	-1021456017	-1021456017	147
6.327842	-0.032104	0.002258	-0.027893	0	-0.0004463	-0.0008545	0.9998360	0	0.00020051	0.00501156	1.00178218	0	177	506	279142221	279142221	147
6.351745	-0.027649	0.012878	-0.031433	0	0.0001793	-0.0008430	0.9994011	0	-0.00038171	0.00447559	1.00181627	0	193	506	-1033274742	-1033274742	147
6.351756	-0.031250	0.007629	-0.030334	0	0.0002880	-0.0006943	0.9987888	0	-0.00020218	0.00415683	1.00199771	0	209	506	1659920473	1659920473	147
6.351803	-0.039185	-0.010193	-0.031067	0	0.0000839	-0.0002251	0.9983406	0	0.00031638	0.00458384	1.00251794	0	225	506	1191069807	1191069807	147
6.375724	-0.035583	-0.023743	-0.025757	0	-0.0002861	0.0001011	0.9984989	0	0.00055075	0.00519466	1.00257492	0	241	506	1528834542	1528834542	147
6.375734	-0.027710	-0.026428	-0.012390	0	-0.0003872	0.0001163	0.9989815	0	0.00055599	0.00536442	1.00210023	0	1	506	-378350695	-378350695	147
6.375744	-0.025757	-0.016907	-0.003540	0	-0.0001316	0.0000114	0.9987640	0	0.00082278	0.00501609	1.00189161	0	17	507	-273062385	-273062385	147
6.399703	-0.015381	0.001465	-0.009949	0	-0.0000992	-0.0000877	0.9981060	0	0.00144482	0.00441122	1.00176334	0	33	507	932688891	932688891	147
6.399714	-0.000854	0.023132	-0.021790	0	-0.0002632	0.0000114	0.9981174	0	0.00148392	0.00392675	1.00141215	0	49	507	-1885269329	-1885269329	147
6.399724	-0.003174	0.035339	-0.022278	0	-0.0003071	0.0004807	0.9984379	0	0.00063872	0.00396132	1.00122380	0	65	507	-1429321399	-1429321399	147
6.423674	-0.015808	0.030518	-0.015198	0	-0.0003319	0.0009556	0.9985008	0	-0.00008416	0.00472403	1.00126076	0	81	506	1117971757	1117971757	147
6.423684	-0.023804	0.021851	-0.012878	0	-0.0000725	0.0008850	0.9986076	0	-0.00050926	0.00576329	1.00130296	0	97	506	172275983	172275983	147
6.423694	-0.028015	0.018311	-0.018127	0	0.0004349	0.0005035	0.9985409	0	-0.00097322	0.00610614	1.00113678	0	113	506	-1761634631	-1761634631	147
6.447649	-0.029053	0.009827	-0.025146	0	0.0005207	0.0002823	0.9983940	0	-0.00093007	0.00528121	1.00075388	0	129	506	-1199662691	-1199662691	147
6.447705	-0.022949	-0.009399	-0.025757	0	0.0001564	0.0001736	0.9988804	0	-0.00035000	0.00409222	1.00066829	0	145	506	-910841589	-910841589	147
6.447715	-0.009094	-0.027344	-0.023865	0	-0.0002136	0.0001087	0.9993744	0	-0.00004387	0.00356627	1.00098062	0	161	506	-1321982743	-1321982743	147
6.471624	0.000427	-0.025940	-0.023560	0	-0.0001698	0.0000935	0.9993362	0	-0.00003099	0.00354505	1.00107408	0	177	507	-930021851	-930021851	147
6.471635	-0.003296	-0.006653	-0.017578	0	0.0003262	0.0000229	0.9996662	0	-0.00001264	0.00339270	1.00103569	0	193	507	-1460747059	-1460747059	147
6.471688	-0.009705	0.007324	-0.012878	0	0.0006943	-0.0002060	1.0000267	0	-0.00023627	0.00335598	1.00144410	0	209	507	186279143	186279143	147
6.495598	-0.010010	0.008423	-0.019043	0	0.0007191	-0.0004158	0.9994564	0	-0.00057960	0.00392342	1.00178766	0	225	507	-1533631085	-1533631085	147
6.495608	-0.015625	0.013855	-0.022095	0	0.0006561	-0.0002823	0.9989624	0	-0.00062633	0.00454664	1.00149608	0	241	506	-252114430	-252114430	147
6.495655	-0.037048	0.029724	-0.014954	0	0.0004330	-0.0000343	0.9992142	0	-0.00049448	0.00448298	1.00120521	0	1	506	1552310825	1552310825	147
6.519578	-0.049316	0.037903	-0.010498	0	-0.0000515	-0.0001335	0.9993114	0	-0.00022507	0.00400496	1.00122881	0	17	506	2039230803	2039230803	147
6.519590	-0.030823	0.032166	-0.006104	0	-0.0003662	-0.0004025	0.9993534	0	0.00052905	0.00378132	1.00098300	0	33	506	1713412276	1713412276	147
6.519611	-0.007751	0.026489	0.006653	0	-0.0002804	-0.0004616	0.9996929	0	0.00171804	0.00390148	1.00067639	0	49	506	-661468901	-661468901	147
6.543551	-0.003235	0.026062	0.013428	0	-0.0003395	-0.0002537	0.9994469	0	0.00261402	0.00414848	1.00103068	0	65	506	487525366	487525366	147
6.543561	-0.007202	0.032043	0.004089	0	-0.0004997	-0.0000858	0.9988251	0	0.00253463	0.00442100	1.00160837	0	81	507	-1982085035	-1982085035	147
6.543583	-0.008423	0.042603	-0.011292	0	-0.0001564	-0.0002460	0.9991112	0	0.00191045	0.00451589	1.00174904	0	97	507	933684779	933684779	147
6.567526	-0.009521	0.044678	-0.019287	0	0.0002937	-0.0006752	0.9995537	0	0.00139332	0.00434923	1.00163889	0	113	507	498097873	498097873	147
6.567536	-0.006653	0.035400	-0.016357	0	0.0003319	-0.0011978	0.9992065	0	0.00083685	0.00409198	1.00136209	0	129	507	-1497996478	-1497996478	147
6.567558	0.004456	0.017822	-0.012695	0	0.0002728	-0.0012074	0.9989281	0	0.00049019	0.00389934	1.00087547	0	145	506	1121756606	1121756606	147
6.591524	0.008484	-0.001038	-0.013611	0	0.0004997	-0.0005798	0.9986858	0	0.00070572	0.00375772	1.00041103	0	161	506	1708189491	1708189491	147
6.591578	-0.002136	-0.001282	-0.012878	0	0.0009460	-0.0002880	0.9983177	0	0.00105333	0.00368881	1.00016713	0	177	506	207512523	207512523	147
6.591588	-0.013123	0.011169	-0.014832	0	0.0010052	-0.0004787	0.9988632	0	0.00109696	0.00383949	1.00072956	0	193	506	-660758430	-660758430	147
6.615495	-0.012939	0.010742	-0.025391	0	0.0005684	-0.0002956	0.9996471	0	0.00073695	0.00389099	1.00231743	0	209	506	-1903264911	-1903264911	147
6.615506	-0.007935	0.002747	-0.036621	0	0.0002213	0.0002937	0.9994068	0	0.00037074	0.00367498	1.00351930	0	225	506	-1213521883	-1213521883	147
6.615559	-0.013000	-0.003845	-0.049316	0	-0.0000496	0.0005054	0.9992256	0	0.00048494	0.00357461	1.00331998	0	241	506	1143939375	1143939375	147
6.639503	-0.028076	-0.013367	-0.060730	0	-0.0004196	0.0001373	0.9997349	0	0.00057960	0.00345159	1.00262952	0	1	507	-616264589	-616264589	147
6.639513	-0.037964	-0.017395	-0.055420	0	-0.0005684	-0.0000420	0.9997139	0	0.00012445	0.00328898	1.00207281	0	17	507	-1710440343	-1710440343	147
6.639561	-0.036194	-0.014832	-0.042236	0	-0.0004158	0.0002689	0.9993076	0	-0.00033665	0.00346160	1.00132298	0	33	507	-610167892	-610167892	147
6.663430	-0.028564	-0.010986	-0.038208	0	-0.0002975	0.0004158	0.9994259	0	-0.00039005	0.00385761	1.00062346	0	49	506	21259857	21259857	147
6.663440	-0.016602	-0.003845	-0.039917	0	-0.0003872	0.0001640	0.9994869	0	-0.00038218	0.00443435	1.00040722	0	65	506	-1101206593	-1101206593	147
6.663462	-0.005066	0.002380	-0.033997	0	-0.0005951	0.0000153	0.9993038	0	-0.00056052	0.00505972	1.00040531	0	81	506	1102175991	1102175991	147
6.687361	-0.003113	-0.000366	-0.015686	0	-0.0009937	0.0000305	0.9996052	0	-0.00055432	0.00531006	1.00025153	0	97	506	-949820295	-949820295	147
6.687373	-0.001221	-0.009521	-0.003845	0	-0.0015297	-0.0001030	0.9998608	0	-0.00010681	0.00514364	1.00013709	0	113	506	-1601887358	-1601887358	147
6.687383	0.007812	-0.011414	-0.011169	0	-0.0015411	-0.0000610	0.9993877	0	0.00011992	0.00453115	1.00024152	0	129	506	-300535682	-300535682	147
6.711338	0.011719	-0.006287	-0.023621	0	-0.0006866	0.0002079	0.9991436	0	-0.00006723	0.00385714	1.00048113	0	145	506	-1005905796	-1005905796	147
6.711349	0.010559	-0.004517	-0.032837	0	0.0000095	0.0000706	0.9995441	0	0.00030756	0.00399852	1.00087309	0	161	507	-1269729585	-1269729585	147
6.711358	0.005981	-0.006775	-0.037598	0	-0.0002422	-0.0003281	0.9997025	0	0.00109410	0.00462985	1.00096250	0	177	507	-217486947	-217486947	147
6.735312	-0.008423	-0.007019	-0.027466	0	-0.0007229	-0.0003719	0.9997234	0	0.00124216	0.00496364	1.00020766	0	193	507	1979339078	1979339078	147
6.735368	-0.012207	-0.000916	-0.006531	0	-0.0007114	-0.0003071	0.9999599	0	0.00090575	0.00517511	0.99938631	0	209	507	-1313067377	-1313067377	147
6.735378	0.006775	0.001526	0.004822	0	-0.0002880	-0.0005913	0.9998188	0	0.00043702	0.00522184	0.99950957	0	225	506	-1421221197	-1421221197	147
6.759322	0.020081	-0.003479	0.000244	0	0.0000744	-0.0009556	0.9995804	0	-0.00013137	0.00492692	1.00018787	0	241	506	-388582155	-388582155	147
6.759377	0.009033	0.006348	-0.005127	0	0.0000229	-0.0008736	0.9999218	0	-0.00055528	0.00470161	1.00068593	0	1	506	727839516	727839516	147
6.759386	-0.010071	0.034180	-0.000549	0	-0.0003223	-0.0005379	1.0001144	0	-0.00087023	0.00457430	1.00074840	0	17	506	-1859021569	-1859021569	147
6.808260	-0.015808	0.045959	0.001831	0	-0.0005703	-0.0006428	0.9996586	0	-0.00094938	0.00434136	1.00014496	0	33	506	1058962377	1058962377	147
6.808270	-0.010071	0.031677	-0.006287	0	-0.0003052	-0.0010147	0.9993114	0	-0.00053525	0.00423837	0.99949408	0	49	506	-182606150	-182606150	147
6.808325	-0.005798	0.019958	-0.013672	0	0.0003643	-0.0010414	0.9990959	0	-0.00008869	0.00424552	0.99982691	0	65	507	-1445148413	-1445148413	147
6.808335	-0.006592	0.021301	-0.014404	0	0.0005589	-0.0007401	0.9984341	0	-0.00009990	0.00403666	1.00062394	0	81	507	-990846344	-990846344	147
