T[s]	GYRO_X	GYRO_Y	GYRO_Z	GyroSts	ACC_X	ACC_Y	ACC_Z	AccSts	INC_X	INC_Y	INC_Z	IncSts	Counter	Latency	RxCRC	CalCRC	DG_ID	
0.173554	-0.060486	0.018494	0.011230	0	0.0209122	0.0105362	0.9865990	0	0.02181578	0.00700259	1.00098348	0	4	507	-1811304637	-1811304637	147
0.173577	-0.062805	0.026245	-0.002563	0	0.0205669	0.0105553	0.9871216	0	0.02278328	0.00694561	1.00011754	0	20	506	2099832871	2099832871	147
0.197522	-0.051697	0.022766	-0.011719	0	0.0200863	0.0105553	0.9875755	0	0.02254796	0.00654173	1.00020885	0	36	506	1538274348	1538274348	147
0.197655	-0.037109	0.004700	-0.004517	0	0.0191555	0.0102024	0.9879379	0	0.02123380	0.00606275	1.00043941	0	52	506	-2097145158	-2097145158	147
0.197669	-0.038208	-0.009155	0.018555	0	0.0179558	0.0096073	0.9881897	0	0.02004957	0.00601268	1.00023437	0	68	506	121812339	121812339	147
0.221523	-0.050110	-0.009216	0.033813	0	0.0170536	0.0088501	0.9881630	0	0.01963782	0.00611234	1.00015950	0	84	506	-1239008544	-1239008544	147
0.221546	-0.060913	-0.006653	0.026001	0	0.0168247	0.0084610	0.9880371	0	0.01955700	0.00573802	1.00060773	0	100	506	-1817465491	-1817465491	147
0.255159	-0.070557	-0.005737	0.013672	0	0.0173569	0.0089397	0.9880543	0	0.01941323	0.00533605	1.00102353	0	116	506	-1098674755	-1098674755	147
0.255176	-0.075928	0.000366	0.021545	0	0.0183620	0.0097580	0.9879303	0	0.01949000	0.00553370	1.00106573	0	132	507	1162440705	1162440705	147
0.255193	-0.077637	0.006897	0.046082	0	0.0194263	0.0102978	0.9874840	0	0.02011561	0.00598812	1.00100923	0	148	506	-280135023	-280135023	147
0.255210	-0.078735	0.007690	0.058960	0	0.0204411	0.0107613	0.9870834	0	0.02112031	0.00652838	1.00100446	0	164	507	-1083040818	-1083040818	147
0.269401	-0.072083	0.004700	0.042847	0	0.0213909	0.0115318	0.9871731	0	0.02244282	0.00734162	1.00091696	0	180	506	2012496744	2012496744	147
0.269421	-0.064453	0.004822	0.015991	0	0.0218525	0.0123310	0.9875603	0	0.02381682	0.00812173	1.00074244	0	196	506	-952218115	-952218115	147
0.269434	-0.068115	0.015564	0.003723	0	0.0216484	0.0123119	0.9875507	0	0.02458477	0.00844193	1.00069571	0	212	506	-1085998123	-1085998123	147
0.293376	-0.073242	0.024780	0.007263	0	0.0208111	0.0112667	0.9870892	0	0.02459311	0.00812626	1.00073290	0	228	506	1623951609	1623951609	147
0.293401	-0.066772	0.018860	0.018311	0	0.0192719	0.0100784	0.9867001	0	0.02401090	0.00722504	1.00060296	0	244	506	-1181491396	-1181491396	147
0.293414	-0.051941	0.012024	0.034851	0	0.0177574	0.0093174	0.9866543	0	0.02306962	0.00622892	1.00040579	0	4	506	1534044239	1534044239	147
0.317312	-0.040710	0.015259	0.051819	0	0.0169697	0.0087852	0.9869957	0	0.02182126	0.00557470	1.00058699	0	20	506	687828184	687828184	147
0.317391	-0.036316	0.017334	0.059753	0	0.0167484	0.0083179	0.9876785	0	0.02021360	0.00507331	1.00128007	0	36	506	-1645605848	-1645605848	147
0.317404	-0.038330	0.019348	0.057983	0	0.0167980	0.0081520	0.9883671	0	0.01885438	0.00479412	1.00199151	0	52	507	-1782718721	-1782718721	147
0.341306	-0.050659	0.024109	0.055359	0	0.0170784	0.0087738	0.9887524	0	0.01838064	0.00512910	1.00218201	0	68	506	312213557	312213557	147
0.341334	-0.067932	0.022888	0.059509	0	0.0178032	0.0099468	0.9886303	0	0.01883173	0.00572515	1.00181055	0	84	506	-619875300	-619875300	147
0.341402	-0.072815	0.017944	0.059204	0	0.0190220	0.0107269	0.9877930	0	0.02003479	0.00592399	1.00124693	0	100	506	1492419394	1492419394	147
0.365275	-0.057678	0.009705	0.046814	0	0.0204411	0.0109406	0.9868050	0	0.02166986	0.00571251	1.00081968	0	116	506	1838453385	1838453385	147
0.365298	-0.044800	0.001587	0.035217	0	0.0215588	0.0112133	0.9865170	0	0.02321005	0.00566840	1.00058126	0	132	506	196307729	196307729	147
0.365345	-0.055542	-0.000732	0.022034	0	0.0220890	0.0116501	0.9867382	0	0.02403402	0.00602508	1.00050592	0	148	506	762040731	762040731	147
0.389237	-0.072754	-0.004089	0.010132	0	0.0220184	0.0116558	0.9867554	0	0.02407575	0.00639558	1.00059175	0	164	506	-1454877739	-1454877739	147
0.389271	-0.080322	-0.004211	0.017456	0	0.0211830	0.0109615	0.9867210	0	0.02381992	0.00671840	1.00065947	0	180	507	-699226971	-699226971	147
0.389328	-0.088867	0.006592	0.031189	0	0.0197678	0.0099773	0.9870834	0	0.02331066	0.00698781	1.00056744	0	196	507	-1529036470	-1529036470	147
0.413165	-0.093750	0.020203	0.028748	0	0.0185242	0.0093098	0.9874592	0	0.02244163	0.00672865	1.00062346	0	212	506	1629771472	1629771472	147
0.413191	-0.079834	0.030945	0.019653	0	0.0178928	0.0093117	0.9876423	0	0.02134562	0.00578713	1.00093246	0	228	507	-1971818286	-1971818286	147
0.413211	-0.063110	0.038818	0.028198	0	0.0175285	0.0098400	0.9879513	0	0.02007270	0.00469255	1.00104380	0	244	506	927793323	927793323	147
0.437162	-0.064880	0.039490	0.053467	0	0.0173130	0.0103054	0.9881039	0	0.01904225	0.00429726	1.00058794	0	4	506	-2123769335	-2123769335	147
0.437185	-0.071350	0.037537	0.066956	0	0.0177612	0.0100994	0.9878025	0	0.01887441	0.00478387	0.99975920	0	20	506	-1804141964	-1804141964	147
0.437198	-0.066284	0.043762	0.054260	0	0.0187263	0.0096436	0.9874554	0	0.01972628	0.00539279	0.99934125	0	36	506	80237630	80237630	147
0.461122	-0.059937	0.050171	0.043762	0	0.0197601	0.0098972	0.9873238	0	0.02127528	0.00572872	0.99975729	0	52	506	1412037448	1412037448	147
0.461177	-0.056946	0.041870	0.055908	0	0.0209484	0.0105782	0.9871883	0	0.02285075	0.00601053	1.00048637	0	68	506	-1473515810	-1473515810	147
0.461190	-0.053589	0.026917	0.063232	0	0.0218601	0.0108643	0.9870243	0	0.02396631	0.00627947	1.00088882	0	84	506	-2019248129	-2019248129	147
0.485132	-0.051270	0.020325	0.053223	0	0.0217152	0.0107689	0.9870167	0	0.02443624	0.00638771	1.00080085	0	100	506	-1480390647	-1480390647	147
0.485154	-0.047485	0.018188	0.044495	0	0.0206375	0.0103416	0.9872684	0	0.02412271	0.00629640	1.00044179	0	116	507	-758970735	-758970735	147
0.485203	-0.046082	0.010559	0.036621	0	0.0195103	0.0094719	0.9878292	0	0.02332067	0.00593352	1.00009632	0	132	507	1060436878	1060436878	147
0.509104	-0.050293	0.005737	0.027893	0	0.0186462	0.0087070	0.9884624	0	0.02259541	0.00532866	0.99999356	0	148	506	782747932	782747932	147
0.509124	-0.051208	0.013306	0.025391	0	0.0175877	0.0086403	0.9887333	0	0.02208924	0.00491762	1.00031352	0	164	506	1065618538	1065618538	147
0.509168	-0.055054	0.021301	0.030029	0	0.0166454	0.0090961	0.9886799	0	0.02159619	0.00498796	1.00076771	0	180	506	2119806277	2119806277	147
0.533093	-0.070129	0.025574	0.041809	0	0.0165138	0.0094852	0.9886360	0	0.02090883	0.00533175	1.00077391	0	196	506	1657725745	1657725745	147
0.533114	-0.075439	0.033020	0.050659	0	0.0173054	0.0098267	0.9885426	0	0.02020645	0.00556374	1.00028515	0	212	506	986603541	986603541	147
0.533127	-0.066162	0.035522	0.052673	0	0.0188713	0.0104523	0.9881229	0	0.02018666	0.00540686	0.99974513	0	228	507	955837003	955837003	147
0.557169	-0.066345	0.025879	0.053894	0	0.0204601	0.0112610	0.9877148	0	0.02118230	0.00532246	0.99936390	0	244	506	1764621028	1764621028	147
0.557194	-0.075378	0.015930	0.044189	0	0.0214558	0.0119476	0.9877644	0	0.02259159	0.00604177	0.99923873	0	4	507	-1351488221	-1351488221	147
0.557206	-0.079834	0.014648	0.024780	0	0.0220032	0.0121231	0.9877720	0	0.02373242	0.00709271	0.99943280	0	20	507	-1030832930	-1030832930	147
0.581051	-0.079102	0.013611	0.014343	0	0.0219460	0.0115948	0.9874229	0	0.02447033	0.00755143	0.99951100	0	36	506	359750997	359750997	147
0.581110	-0.073608	0.009766	0.012451	0	0.0211563	0.0108147	0.9872246	0	0.02471232	0.00734878	0.99925566	0	52	507	-1215012688	-1215012688	147
0.581122	-0.062561	0.013794	0.011475	0	0.0199203	0.0104561	0.9872475	0	0.02419949	0.00671840	0.99919820	0	68	506	-1140545795	-1140545795	147
0.604975	-0.045166	0.017700	0.018616	0	0.0184059	0.0103626	0.9872055	0	0.02317810	0.00588822	0.99951577	0	84	506	-1334382862	-1334382862	147
0.605034	-0.034668	0.002991	0.034851	0	0.0170326	0.0097694	0.9871159	0	0.02222919	0.00492811	0.99963856	0	100	506	1034055028	1034055028	147
0.605046	-0.038940	-0.015625	0.046448	0	0.0161762	0.0087681	0.9870415	0	0.02126026	0.00394344	0.99947691	0	116	506	-1835559599	-1835559599	147
0.628941	-0.044617	-0.010681	0.051392	0	0.0158424	0.0083294	0.9870262	0	0.02013993	0.00374961	0.99966526	0	132	506	1608139231	1608139231	147
0.628970	-0.052734	0.008423	0.057922	0	0.0161400	0.0088062	0.9872208	0	0.01943135	0.00445390	1.00042129	0	148	507	-1406359952	-1406359952	147
0.629082	-0.064636	0.016846	0.063965	0	0.0171604	0.0096722	0.9876328	0	0.01957369	0.00493002	1.00128150	0	164	507	1626286781	1626286781	147
0.652961	-0.067627	0.014099	0.062805	0	0.0186596	0.0105286	0.9880199	0	0.02058578	0.00485492	1.00168014	0	180	506	-2008815281	-2008815281	147
0.652992	-0.068726	0.013855	0.049255	0	0.0202160	0.0110607	0.9879742	0	0.02211666	0.00508022	1.00152493	0	196	507	-1133021959	-1133021959	147
0.653007	-0.078125	0.018066	0.029175	0	0.0214157	0.0109463	0.9872952	0	0.02340078	0.00603461	1.00121117	0	212	507	1833870863	1833870863	147
0.676883	-0.085449	0.018860	0.022034	0	0.0219135	0.0107651	0.9864388	0	0.02402902	0.00696206	1.00085950	0	228	506	-1850376636	-1850376636	147
0.676908	-0.079468	0.013550	0.024475	0	0.0217342	0.0110130	0.9858704	0	0.02422953	0.00727248	1.00038981	0	244	506	-713754920	-713754920	147
0.676922	-0.059509	0.004211	0.024048	0	0.0211830	0.0111790	0.9855709	0	0.02421451	0.00737190	1.00009346	0	4	506	1980841513	1980841513	147
0.700841	-0.045288	-0.006042	0.029480	0	0.0201550	0.0109329	0.9858513	0	0.02401948	0.00738788	1.00015330	0	20	506	-9679149	-9679149	147
0.700869	-0.049011	-0.008789	0.039001	0	0.0186901	0.0101128	0.9870796	0	0.02350354	0.00704575	1.00046444	0	36	506	558168887	558168887	147
0.700881	-0.054688	-0.000977	0.049255	0	0.0173607	0.0089283	0.9884739	0	0.02240610	0.00639462	1.00077605	0	52	506	1376854659	1376854659	147
0.804783	-0.061340	0.009521	0.064697	0	0.0164204	0.0085011	0.9889030	0	0.02082229	0.00547385	1.00086284	0	68	506	-1427025154	-1427025154	147
0.804863	-0.075378	0.013062	0.072998	0	0.0162468	0.0090389	0.9885349	0	0.01922822	0.00467277	1.00075841	0	84	507	790607385	790607385	147
0.804879	-0.082764	0.010132	0.065674	0	0.0172310	0.0095119	0.9880295	0	0.01831746	0.00481081	1.00043893	0	100	507	-561159392	-561159392	147
0.804897	-0.074768	0.007019	0.056030	0	0.0186291	0.0097771	0.9875393	0	0.01852083	0.00574660	0.99996376	0	116	507	2042397432	2042397432	147
0.804913	-0.061218	0.002747	0.057800	0	0.0197487	0.0103016	0.9872875	0	0.01954889	0.00658298	0.99955893	0	132	506	1084015787	1084015787	147
0.804964	-0.055847	0.006104	0.062744	0	0.0207958	0.0106525	0.9871502	0	0.02106929	0.00706148	0.99953318	0	148	506	778500543	778500543	147
0.804981	-0.056152	0.024597	0.056641	0	0.0218334	0.0103874	0.9868679	0	0.02297068	0.00742435	1.00012970	0	164	506	-1713159884	-1713159884	147
0.804998	-0.051514	0.037231	0.041992	0	0.0224533	0.0100594	0.9866562	0	0.02456975	0.00773597	1.00064826	0	180	506	641612136	641612136	147
0.805039	-0.047180	0.029236	0.029602	0	0.0222511	0.0101662	0.9865685	0	0.02489305	0.00772905	1.00032711	0	196	506	500124358	500124358	147
0.805057	-0.052551	0.017883	0.024902	0	0.0211792	0.0103455	0.9864216	0	0.02402067	0.00727868	0.99977183	0	212	506	-1807133349	-1807133349	147
0.805073	-0.057373	0.018188	0.026245	0	0.0195332	0.0100651	0.9861450	0	0.02276969	0.00684762	0.99984932	0	228	506	1712527883	1712527883	147
0.805090	-0.052979	0.022034	0.034485	0	0.0179043	0.0093479	0.9860802	0	0.02148104	0.00656652	1.00037837	0	244	507	-2134909617	-2134909617	147
0.805139	-0.057800	0.023010	0.038574	0	0.0166740	0.0088062	0.9865456	0	0.02024651	0.00593066	1.00057268	0	4	506	1056970941	1056970941	147
0.829675	-0.073730	0.028992	0.022949	0	0.0160751	0.0092049	0.9871731	0	0.01937675	0.00544691	1.00044608	0	20	507	748702595	748702595	147
0.829695	-0.077148	0.032288	0.012634	0	0.0165577	0.0103436	0.9874325	0	0.01916790	0.00585675	1.00084162	0	36	507	52810429	52810429	147
0.829708	-0.069031	0.018982	0.026794	0	0.0179062	0.0110683	0.9872513	0	0.01959729	0.00636768	1.00165272	0	52	506	-2144642575	-2144642575	147
0.853672	-0.065247	0.000732	0.039673	0	0.0193653	0.0110550	0.9869289	0	0.02036357	0.00649309	1.00204253	0	68	506	-2147158593	-2147158593	147
0.853709	-0.064392	-0.012207	0.038147	0	0.0206413	0.0111618	0.9866886	0	0.02122045	0.00670552	1.00200558	0	84	506	-438868429	-438868429	147
0.853721	-0.059937	-0.020142	0.038147	0	0.0217075	0.0118828	0.9867744	0	0.02208066	0.00685644	1.00173140	0	100	507	2140267319	2140267319	147
0.877652	-0.052979	-0.016785	0.044495	0	0.0222111	0.0126686	0.9871902	0	0.02279305	0.00677943	1.00109553	0	116	506	-152427593	-152427593	147
0.877682	-0.042969	-0.010864	0.044312	0	0.0218239	0.0128269	0.9871979	0	0.02317524	0.00685358	1.00034022	0	132	506	-1776345321	-1776345321	147
0.877701	-0.032593	-0.015015	0.036255	0	0.0208912	0.0120773	0.9865246	0	0.02320051	0.00698781	0.99997926	0	148	506	312299448	312299448	147
0.901575	-0.032776	-0.012268	0.033020	0	0.0198269	0.0108509	0.9860268	0	0.02292752	0.00674224	1.00005579	0	164	507	1415217903	1415217903	147
0.901648	-0.041626	0.009521	0.038391	0	0.0188675	0.0100594	0.9863796	0	0.02235770	0.00622702	1.00007224	0	180	507	-2064366134	-2064366134	147
0.901666	-0.044312	0.027771	0.049683	0	0.0182419	0.0096436	0.9872398	0	0.02145934	0.00563145	1.00005651	0	196	507	1832508333	1832508333	147
0.925577	-0.045044	0.033569	0.063904	0	0.0176449	0.0091534	0.9878159	0	0.02052593	0.00491905	1.00054717	0	212	506	952887794	952887794	147
0.925602	-0.053223	0.039490	0.073853	0	0.0168571	0.0089073	0.9877892	0	0.02002978	0.00445223	1.00156522	0	228	506	-85469079	-85469079	147
0.925650	-0.062378	0.035950	0.072266	0	0.0166378	0.0092068	0.9873295	0	0.01989412	0.00459862	1.00243807	0	244	506	105710909	105710909	147
0.949540	-0.067932	0.022949	0.060059	0	0.0175533	0.0098267	0.9867268	0	0.01991892	0.00500250	1.00237155	0	4	506	468514360	468514360	147
0.949561	-0.066895	0.024597	0.048523	0	0.0190907	0.0103951	0.9864655	0	0.02035856	0.00534916	1.00148964	0	20	506	-1147913242	-1147913242	147
0.949623	-0.062012	0.033691	0.046631	0	0.0205059	0.0108871	0.9867992	0	0.02130580	0.00597596	1.00051713	0	36	507	1109670689	1109670689	147
0.973488	-0.059692	0.028259	0.046326	0	0.0213795	0.0113564	0.9871750	0	0.02241182	0.00689030	0.99963164	0	52	507	-2018871526	-2018871526	147
0.973513	-0.058838	0.012817	0.035339	0	0.0216599	0.0116463	0.9870872	0	0.02311349	0.00744867	0.99905252	0	68	507	396630080	396630080	147
0.973527	-0.057007	-0.005493	0.021301	0	0.0215149	0.0116005	0.9869633	0	0.02306533	0.00736976	0.99918008	0	84	506	1752990855	1752990855	147
0.997524	-0.048401	-0.020874	0.020081	0	0.0208588	0.0112362	0.9871330	0	0.02261829	0.00713253	0.99975228	0	100	506	-624336231	-624336231	147
0.997554	-0.037964	-0.018250	0.025635	0	0.0195847	0.0107861	0.9873104	0	0.02211452	0.00697207	1.00033236	0	116	506	-342865549	-342865549	147
0.997572	-0.036072	-0.004395	0.027588	0	0.0182304	0.0101719	0.9874344	0	0.02136898	0.00647569	1.00057173	0	132	506	-1035242204	-1035242204	147
1.021481	-0.037781	-0.000427	0.041138	0	0.0176086	0.0092068	0.9878159	0	0.02068543	0.00546741	1.00040531	0	148	506	-371543993	-371543993	147
1.021577	-0.041382	0.002930	0.065125	0	0.0177441	0.0083885	0.9885769	0	0.02052784	0.00442147	1.00044441	0	164	506	1656797748	1656797748	147
1.021594	-0.054016	0.019165	0.071777	0	0.0180359	0.0084000	0.9889507	0	0.02045083	0.00410533	1.00087786	0	180	506	-1889428690	-1889428690	147
1.045453	-0.069031	0.032043	0.066589	0	0.0184917	0.0092888	0.9883118	0	0.02012539	0.00469398	1.00106120	0	196	506	-125131811	-125131811	147
1.045534	-0.070862	0.031311	0.068054	0	0.0194874	0.0104427	0.9874153	0	0.01996660	0.00578141	1.00072742	0	212	506	-705342535	-705342535	147
1.045553	-0.063171	0.022766	0.063843	0	0.0208797	0.0111980	0.9870453	0	0.02052689	0.00687623	1.00043416	0	228	507	1938238774	1938238774	147
1.069414	-0.059998	0.014771	0.046265	0	0.0221004	0.0116920	0.9870300	0	0.02177930	0.00744700	1.00034952	0	244	507	1355147459	1355147459	147
1.069435	-0.063232	0.014771	0.027710	0	0.0222778	0.0121346	0.9870377	0	0.02279019	0.00752091	1.00004864	0	4	506	159594123	159594123	147
1.069491	-0.067444	0.016724	0.019409	0	0.0212193	0.0119343	0.9870319	0	0.02308512	0.00746870	0.99964428	0	20	506	-215958781	-215958781	147
1.093366	-0.065308	0.015015	0.022766	0	0.0198898	0.0111046	0.9869423	0	0.02310419	0.00742459	0.99938893	0	36	506	2120861721	2120861721	147
1.093389	-0.058533	0.006714	0.030457	0	0.0190525	0.0104256	0.9868927	0	0.02282429	0.00733018	0.99932766	0	52	506	2057965027	2057965027	147
1.093402	-0.059570	-0.012451	0.032349	0	0.0187244	0.0099792	0.9870911	0	0.02213526	0.00678968	0.99976707	0	68	506	-436277359	-436277359	147
1.117350	-0.066406	-0.026001	0.028931	0	0.0182076	0.0095100	0.9872112	0	0.02151227	0.00573802	1.00069904	0	84	506	5311609	5311609	147
1.117370	-0.067017	-0.016418	0.029968	0	0.0170441	0.0092239	0.9870987	0	0.02113748	0.00498652	1.00151277	0	100	507	-152024581	-152024581	147
1.117383	-0.066223	0.005676	0.031860	0	0.0163517	0.0092964	0.9869499	0	0.02070236	0.00516152	1.00161171	0	116	506	81054778	81054778	147
1.141305	-0.066956	0.022766	0.028931	0	0.0170803	0.0095367	0.9870090	0	0.02018952	0.00577545	1.00089979	0	132	506	-58637533	-58637533	147
1.141333	-0.058899	0.029907	0.033020	0	0.0183907	0.0097313	0.9877491	0	0.02010274	0.00615549	0.99998736	0	148	507	1813961416	1813961416	147
1.141350	-0.044983	0.031189	0.040344	0	0.0195713	0.0100613	0.9884491	0	0.02096868	0.00645089	0.99967074	0	164	506	-711331415	-711331415	147
1.165267	-0.036621	0.028442	0.032410	0	0.0209103	0.0107994	0.9879398	0	0.02260661	0.00684905	1.00005245	0	180	507	-268565968	-268565968	147
1.165323	-0.035278	0.014038	0.018555	0	0.0223637	0.0115891	0.9871197	0	0.02390957	0.00726104	1.00059080	0	196	506	-710891061	-710891061	147
1.165335	-0.037720	0.002563	0.016235	0	0.0232544	0.0117321	0.9870186	0	0.02431083	0.00770259	1.00091934	0	212	506	1169868038	1169868038	147
1.189236	-0.044983	0.011963	0.018921	0	0.0229950	0.0110912	0.9871597	0	0.02440763	0.00799918	1.00100398	0	228	506	-2043771380	-2043771380	147
1.189259	-0.054443	0.018250	0.020386	0	0.0215988	0.0102558	0.9873123	0	0.02427316	0.00795650	1.00070357	0	244	506	-769297977	-769297977	147
1.189306	-0.056335	0.010681	0.029358	0	0.0196686	0.0097523	0.9876137	0	0.02362156	0.00750041	1.00012946	0	4	506	-640766054	-640766054	147
1.213206	-0.048279	0.009216	0.046997	0	0.0178013	0.0093002	0.9877567	0	0.02289748	0.00662851	0.99990821	0	20	507	-1621169515	-1621169515	147
1.213230	-0.040955	0.019714	0.065002	0	0.0162735	0.0086498	0.9875946	0	0.02212906	0.00553250	0.99993157	0	36	506	698349819	698349819	147
1.213278	-0.045349	0.034546	0.078125	0	0.0153866	0.0085011	0.9874687	0	0.02071810	0.00439811	0.99954796	0	52	507	-1421653601	-1421653601	147
1.237205	-0.060181	0.038696	0.081116	0	0.0154324	0.0092545	0.9874763	0	0.01903963	0.00372148	0.99933720	0	68	507	-1613769478	-1613769478	147
1.237236	-0.075073	0.023376	0.072632	0	0.0164471	0.0100880	0.9873314	0	0.01836276	0.00410891	1.00000095	0	84	507	2071262484	2071262484	147
1.237252	-0.077515	0.002747	0.058716	0	0.0182304	0.0103970	0.9873333	0	0.01904941	0.00512338	1.00093246	0	100	506	-1974829795	-1974829795	147
1.261187	-0.067749	-0.003601	0.042297	0	0.0201187	0.0105667	0.9876137	0	0.02017808	0.00593495	1.00142479	0	116	506	-387010197	-387010197	147
1.261214	-0.063660	0.006531	0.020203	0	0.0214291	0.0109291	0.9872932	0	0.02104568	0.00654888	1.00160575	0	132	506	-972387542	-972387542	147
1.261227	-0.068665	0.018188	0.002197	0	0.0220280	0.0112648	0.9861526	0	0.02197719	0.00708294	1.00184035	0	148	506	1346871641	1346871641	147
1.285113	-0.061829	0.021729	0.002380	0	0.0220146	0.0111790	0.9850807	0	0.02318144	0.00716972	1.00184178	0	164	506	-1119219084	-1119219084	147
1.285172	-0.036987	0.019775	0.009033	0	0.0215092	0.0106983	0.9846516	0	0.02392793	0.00668001	1.00153470	0	180	506	974116798	974116798	147
1.285187	-0.016235	0.015381	0.007385	0	0.0205231	0.0102291	0.9849663	0	0.02367091	0.00625277	1.00150943	0	196	506	-1582023531	-1582023531	147
1.309107	-0.018799	0.008606	0.003418	0	0.0191956	0.0098324	0.9861603	0	0.02277923	0.00623965	1.00127029	0	212	507	-82356820	-82356820	147
1.309200	-0.038513	0.003479	0.009094	0	0.0181332	0.0093899	0.9878044	0	0.02175593	0.00602460	1.00030947	0	228	507	-624102939	-624102939	147
1.309218	-0.056213	0.009277	0.034546	0	0.0176392	0.0089207	0.9887638	0	0.02080655	0.00550222	0.99953604	0	244	507	1138876697	1138876697	147
1.333083	-0.061707	0.020203	0.065430	0	0.0174160	0.0084057	0.9886456	0	0.02011442	0.00519967	0.99918628	0	4	506	934668619	934668619	147
1.333114	-0.059937	0.023926	0.072388	0	0.0174675	0.0083466	0.9881916	0	0.01991129	0.00497675	0.99888659	0	20	506	826153348	826153348	147
1.333192	-0.063538	0.026062	0.062988	0	0.0180321	0.0093975	0.9878998	0	0.02044797	0.00473380	0.99918675	0	36	506	-798743620	-798743620	147
1.357059	-0.078064	0.033875	0.058411	0	0.0191746	0.0107841	0.9877872	0	0.02166677	0.00495458	1.00034308	0	52	506	64486121	64486121	147
1.357088	-0.091919	0.038574	0.049805	0	0.0204811	0.0113201	0.9878769	0	0.02280951	0.00554872	1.00139618	0	68	506	-2015650153	-2015650153	147
1.357105	-0.088623	0.027832	0.026733	0	0.0209522	0.0113716	0.9881783	0	0.02320814	0.00607181	1.00142908	0	84	506	844624950	844624950	147
1.381049	-0.076294	0.014954	0.003906	0	0.0204849	0.0115719	0.9884472	0	0.02317047	0.00651670	1.00074840	0	100	506	-757677195	-757677195	147
1.381073	-0.072754	0.022034	-0.005493	0	0.0201740	0.0113525	0.9881973	0	0.02307343	0.00670099	1.00021243	0	116	507	1261231549	1261231549	147
1.381085	-0.071960	0.036377	-0.002686	0	0.0201530	0.0104141	0.9872665	0	0.02260208	0.00640416	1.00003529	0	132	507	-1920386689	-1920386689	147
1.405158	-0.067505	0.032959	0.010193	0	0.0192966	0.0096321	0.9861870	0	0.02176690	0.00589800	0.99989581	0	148	506	1211782417	1211782417	147
1.405241	-0.064697	0.011414	0.019104	0	0.0176353	0.0096054	0.9858227	0	0.02114654	0.00570869	0.99963236	0	164	506	2109969802	2109969802	147
1.405256	-0.059326	-0.005005	0.016846	0	0.0166035	0.0099545	0.9865284	0	0.02052283	0.00614381	0.99961996	0	180	506	1513559286	1513559286	147
1.429003	-0.050659	-0.001221	0.023438	0	0.0166435	0.0101490	0.9879112	0	0.01943684	0.00664616	1.00033188	0	196	506	-1192565249	-1192565249	147
1.429066	-0.050964	0.006531	0.042725	0	0.0170918	0.0100269	0.9891453	0	0.01869774	0.00643349	1.00134230	0	212	506	-1057906627	-1057906627	147
1.429078	-0.058655	0.003784	0.050415	0	0.0177021	0.0098324	0.9893818	0	0.01891184	0.00575161	1.00178671	0	228	506	-1021305601	-1021305601	147
1.452999	-0.058838	0.000916	0.039490	0	0.0188465	0.0101128	0.9884396	0	0.01953602	0.00552392	1.00162959	0	244	506	-478981754	-478981754	147
1.453020	-0.048523	0.005920	0.029358	0	0.0206184	0.0109615	0.9871101	0	0.02022815	0.00608468	1.00126791	0	4	506	907246034	907246034	147
1.453066	-0.035889	0.010193	0.034302	0	0.0220375	0.0116444	0.9861469	0	0.02118802	0.00679469	1.00078177	0	20	506	1082991657	1082991657	147
1.476952	-0.030334	0.008484	0.046448	0	0.0221596	0.0117340	0.9856377	0	0.02262616	0.00706005	1.00015807	0	36	507	2035378645	2035378645	147
1.476973	-0.036682	0.009155	0.050110	0	0.0216103	0.0114403	0.9856987	0	0.02401471	0.00709343	0.99962950	0	52	506	-1475512086	-1475512086	147
1.477015	-0.052307	0.019592	0.043274	0	0.0210781	0.0107880	0.9865799	0	0.02422881	0.00712132	0.99969459	0	68	507	-2004571586	-2004571586	147
1.500886	-0.064270	0.033203	0.031555	0	0.0200901	0.0099049	0.9877815	0	0.02313924	0.00692010	1.00037813	0	84	506	-911753915	-911753915	147
1.500910	-0.064697	0.040894	0.030273	0	0.0185299	0.0093079	0.9883709	0	0.02183414	0.00646853	1.00105858	0	100	506	1640729332	1640729332	147
1.500923	-0.067261	0.044434	0.053223	0	0.0171146	0.0091476	0.9882355	0	0.02092147	0.00593734	1.00150728	0	116	506	-1051181967	-1051181967	147
1.524928	-0.073547	0.044678	0.074097	0	0.0162201	0.0090523	0.9878864	0	0.01993990	0.00541902	1.00175071	0	132	506	1730880766	1730880766	147
1.524950	-0.070007	0.036682	0.062988	0	0.0159454	0.0090694	0.9876175	0	0.01866770	0.00511479	1.00151801	0	148	506	-2141030761	-2141030761	147
1.524962	-0.065735	0.021973	0.037354	0	0.0165462	0.0095882	0.9875603	0	0.01778626	0.00518966	1.00096798	0	164	506	-874119208	-874119208	147
1.548843	-0.072632	0.010864	0.028259	0	0.0179558	0.0102158	0.9876213	0	0.01825070	0.00544143	1.00074697	0	180	506	-2083266273	-2083266273	147
1.548909	-0.076477	0.016296	0.039307	0	0.0194035	0.0104942	0.9876289	0	0.02001262	0.00564909	1.00110054	0	196	506	35383149	35383149	147
1.548922	-0.065125	0.034485	0.049683	0	0.0201817	0.0108376	0.9873962	0	0.02174163	0.00610423	1.00164199	0	212	506	480777978	480777978	147
1.612790	-0.056946	0.041626	0.044312	0	0.0206413	0.0114098	0.9867382	0	0.02280402	0.00697207	1.00193048	0	228	506	-819609677	-819609677	147
1.612854	-0.062378	0.031006	0.026123	0	0.0211830	0.0115833	0.9863186	0	0.02362204	0.00766397	1.00179696	0	244	506	1452243385	1452243385	147
1.612876	-0.065430	0.018494	0.003174	0	0.0214520	0.0110340	0.9866352	0	0.02418137	0.00759482	1.00110364	0	4	506	-1318597643	-1318597643	147
1.612896	-0.064026	0.013184	-0.008789	0	0.0210896	0.0102329	0.9868965	0	0.02406335	0.00694633	1.00024652	0	20	506	-1542962957	-1542962957	147
1.612916	-0.066833	0.015137	0.007446	0	0.0200481	0.0095634	0.9868393	0	0.02312994	0.00620413	1.00007749	0	36	506	582367739	582367739	147
1.612979	-0.065979	0.021301	0.030396	0	0.0186787	0.0089989	0.9869537	0	0.02190661	0.00540519	1.00058889	0	52	506	611501606	611501606	147
1.612996	-0.061157	0.023865	0.033081	0	0.0174732	0.0086536	0.9872169	0	0.02112746	0.00479031	1.00114393	0	68	506	1397708770	1397708770	147
1.613014	-0.065857	0.022949	0.039368	0	0.0167866	0.0088596	0.9873638	0	0.02097702	0.00487161	1.00147653	0	84	506	-1596216725	-1596216725	147
1.661725	-0.072693	0.028198	0.065002	0	0.0167980	0.0095177	0.9872875	0	0.02101445	0.00510859	1.00152278	0	100	507	999462414	999462414	147
1.661781	-0.068481	0.033936	0.085266	0	0.0172520	0.0101185	0.9873295	0	0.02069521	0.00502014	1.00118589	0	116	506	-500281408	-500281408	147
1.661793	-0.062134	0.024963	0.081787	0	0.0181961	0.0104656	0.9874973	0	0.02053690	0.00524426	1.00082421	0	132	506	-93988425	-93988425	147
1.661805	-0.057068	0.006958	0.057617	0	0.0197773	0.0106850	0.9871330	0	0.02161384	0.00588632	1.00100923	0	148	506	548728748	548728748	147
1.661836	-0.047974	-0.003662	0.030945	0	0.0212631	0.0110703	0.9863415	0	0.02325702	0.00643325	1.00145102	0	164	506	1449114445	1449114445	147
1.661848	-0.042847	-0.004456	0.017456	0	0.0218773	0.0116005	0.9860268	0	0.02390671	0.00677586	1.00144005	0	180	506	1676885043	1676885043	147
1.685704	-0.047119	-0.001709	0.012024	0	0.0214539	0.0116825	0.9864292	0	0.02375269	0.00689626	1.00092578	0	196	506	1402615171	1402615171	147
1.685731	-0.054199	0.003174	0.003235	0	0.0202579	0.0110378	0.9869099	0	0.02361250	0.00672603	1.00043702	0	212	506	-1428766203	-1428766203	147
1.685795	-0.057434	0.005676	-0.004150	0	0.0188866	0.0101833	0.9873066	0	0.02297091	0.00629687	1.00031781	0	228	506	-748837455	-748837455	147
1.709651	-0.056091	-0.002258	-0.000977	0	0.0176907	0.0097866	0.9877949	0	0.02138448	0.00547218	1.00055075	0	244	506	1107311175	1107311175	147
1.709672	-0.056702	-0.013855	0.005493	0	0.0166569	0.0096874	0.9880371	0	0.01972222	0.00442624	1.00116396	0	4	507	1822222870	1822222870	147
1.709685	-0.065186	-0.015198	0.014954	0	0.0160580	0.0094395	0.9879150	0	0.01868415	0.00407791	1.00185418	0	20	507	346367904	346367904	147
1.733703	-0.071167	-0.003845	0.037659	0	0.0162621	0.0093594	0.9877205	0	0.01819086	0.00465775	1.00216460	0	36	507	-1663757107	-1663757107	147
1.733732	-0.065125	0.007874	0.058960	0	0.0171623	0.0098228	0.9874859	0	0.01830077	0.00530219	1.00197172	0	52	506	1148036351	1148036351	147
1.733744	-0.058289	0.012024	0.067200	0	0.0184441	0.0104694	0.9870205	0	0.01926827	0.00572920	1.00136590	0	68	506	960497834	960497834	147
1.757597	-0.058350	0.015686	0.068665	0	0.0197868	0.0109406	0.9864426	0	0.02094293	0.00644374	1.00086379	0	84	506	-46268102	-46268102	147
1.757634	-0.060669	0.020996	0.057312	0	0.0207539	0.0113354	0.9862728	0	0.02247858	0.00758934	1.00097203	0	100	506	-1821703471	-1821703471	147
1.757654	-0.062317	0.023926	0.038696	0	0.0211868	0.0115261	0.9865475	0	0.02329707	0.00845575	1.00146651	0	116	506	-1017462231	-1017462231	147
1.781604	-0.057434	0.023621	0.029724	0	0.0213490	0.0113487	0.9866486	0	0.02364659	0.00827408	1.00149989	0	132	506	-960241824	-960241824	147
1.781663	-0.045959	0.019775	0.026855	0	0.0213051	0.0109806	0.9863987	0	0.02359366	0.00729465	1.00053430	0	148	506	-166729228	-166729228	147
1.781676	-0.043701	0.013245	0.023621	0	0.0206203	0.0105324	0.9862919	0	0.02307844	0.00627685	0.99939060	0	164	507	1310407088	1310407088	147
1.805556	-0.055908	0.004517	0.020752	0	0.0191917	0.0100956	0.9867592	0	0.02230525	0.00553679	0.99918747	0	180	507	-1663385234	-1663385234	147
1.805584	-0.067505	-0.005554	0.018982	0	0.0179176	0.0096416	0.9875946	0	0.02125883	0.00495768	0.99975514	0	196	507	838947753	838947753	147
1.805655	-0.067566	-0.012329	0.023621	0	0.0173607	0.0091572	0.9880829	0	0.01989412	0.00459743	1.00042415	0	212	506	-876785902	-876785902	147
1.829500	-0.064758	-0.011597	0.036072	0	0.0170975	0.0089722	0.9878311	0	0.01854658	0.00485730	1.00097442	0	228	506	-1050830658	-1050830658	147
1.829524	-0.067444	-0.007080	0.046509	0	0.0170650	0.0092907	0.9873371	0	0.01779723	0.00571299	1.00136399	0	244	506	-584356413	-584356413	147
1.829582	-0.066895	-0.003357	0.050720	0	0.0177746	0.0101814	0.9871979	0	0.01795626	0.00647306	1.00142050	0	4	506	-951288490	-951288490	147
1.853493	-0.052673	0.007324	0.054077	0	0.0189686	0.0113544	0.9869728	0	0.01883745	0.00668526	1.00123310	0	20	506	2043036621	2043036621	147
1.853519	0.001770	0.019104	0.065735	0	0.0220757	0.0111160	0.9843178	0	0.02047563	0.00651169	1.00078273	0	36	506	-2024429426	-2024429426	147
1.853531	0.055054	0.019958	0.111084	0	0.0316315	0.0119457	0.9814968	0	0.02472758	0.00620222	0.99900818	0	52	506	1729267377	1729267377	147
1.877479	-0.030884	0.029114	0.208740	0	0.0438805	0.0163803	0.9889565	0	0.03384638	0.00706100	0.99829412	0	68	506	-390642858	-390642858	147
1.877500	-0.178467	0.046448	0.310303	0	0.0444202	0.0161591	1.0023479	0	0.04336667	0.00929189	1.00408340	0	84	507	-418033540	-418033540	147
1.877513	-0.179810	0.073364	0.332397	0	0.0293274	0.0103645	1.0003452	0	0.04362440	0.00943780	1.01147318	0	100	506	28861544	28861544	147
1.901404	-0.089600	0.115112	0.250732	0	0.0098209	0.0087929	0.9825096	0	0.03259158	0.00706005	1.00850677	0	116	506	-287933877	-287933877	147
1.901464	-0.022095	0.134949	0.094543	0	-0.0053387	0.0105171	0.9708271	0	0.01695347	0.00593495	0.99659634	0	132	506	1915614192	1915614192	147
1.901476	0.002625	0.133240	-0.086548	0	-0.0131721	0.0116978	0.9749126	0	0.00312138	0.00672722	0.98846388	0	148	506	1851694267	1851694267	147
1.925405	-0.057373	0.102417	-0.223328	0	-0.0120354	0.0136280	0.9844456	0	-0.00520563	0.00829864	0.98948145	0	164	506	-1561299328	-1561299328	147
1.925459	-0.134277	0.054749	-0.278809	0	-0.0029106	0.0132923	0.9912872	0	-0.00621438	0.00999212	0.99486351	0	180	506	1911120579	1911120579	147
1.925472	-0.124207	0.059753	-0.269836	0	0.0105667	0.0094337	0.9971542	0	0.00006390	0.00983739	1.00065470	0	196	507	-1530519946	-1530519946	147
1.949416	-0.100952	0.071594	-0.214905	0	0.0241089	0.0084171	1.0011253	0	0.01123619	0.00803804	1.00640249	0	212	506	1150666111	1150666111	147
1.949456	-0.130066	0.003601	-0.116028	0	0.0346508	0.0106049	0.9981709	0	0.02347207	0.00736380	1.00998735	0	228	506	-1488728740	-1488728740	147
1.949543	-0.128662	-0.103027	0.011536	0	0.0402660	0.0103550	0.9867992	0	0.03358340	0.00740266	1.00777721	0	244	506	888890873	888890873	147
1.973307	-0.070435	-0.160767	0.135132	0	0.0403996	0.0077686	0.9741402	0	0.03945756	0.00592613	0.99936414	0	4	506	-390025364	-390025364	147
1.973328	-0.018311	-0.167358	0.210266	0	0.0353642	0.0054054	0.9708271	0	0.04030156	0.00324917	0.99017549	0	20	507	-2001001715	-2001001715	147
1.973340	-0.000732	-0.164368	0.201416	0	0.0264702	0.0044594	0.9792976	0	0.03641057	0.00101233	0.98741150	0	36	506	186883196	186883196	147
1.997270	-0.037231	-0.152405	0.128967	0	0.0166721	0.0055676	0.9929943	0	0.02900457	0.00049114	0.99346232	0	52	506	-687105103	-687105103	147
1.997292	-0.096008	-0.123474	0.037903	0	0.0082111	0.0064354	1.0023346	0	0.02006078	0.00177312	1.00404644	0	68	506	96543746	96543746	147
1.997304	-0.100952	-0.083740	-0.054077	0	0.0028152	0.0050564	1.0005608	0	0.01160479	0.00290513	1.01160693	0	84	506	1363590044	1363590044	147
2.021287	-0.067383	-0.043030	-0.121399	0	0.0024948	0.0044594	0.9900608	0	0.00594020	0.00253820	1.01110935	0	100	506	-583205377	-583205377	147
2.021312	-0.052002	-0.003845	-0.124756	0	0.0076389	0.0069160	0.9810982	0	0.00501537	0.00225019	1.00433946	0	116	506	-294040895	-294040895	147
2.021326	-0.058167	0.032776	-0.063171	0	0.0163994	0.0101604	0.9794712	0	0.00915694	0.00361323	0.99777317	0	132	507	-839459145	-839459145	147
2.045267	-0.070312	0.056091	0.032837	0	0.0262794	0.0122166	0.9809742	0	0.01717401	0.00587249	0.99497890	0	148	507	-1153406663	-1153406663	147
2.045381	-0.060669	0.072205	0.137512	0	0.0349960	0.0126953	0.9820137	0	0.02651191	0.00744319	0.99466658	0	164	507	1072310338	1072310338	147
2.045394	-0.020447	0.098633	0.224854	0	0.0397701	0.0122089	0.9852905	0	0.03419518	0.00780630	0.99593759	0	180	507	-167186803	-167186803	147
2.069221	-0.004639	0.120667	0.263062	0	0.0386086	0.0127029	0.9910412	0	0.03853321	0.00787377	0.99921584	0	196	506	258319018	258319018	147
2.069289	-0.033020	0.104187	0.243103	0	0.0322876	0.0141869	0.9934044	0	0.03862858	0.00850892	1.00276279	0	212	506	939324216	939324216	147
2.069302	-0.050659	0.063293	0.180664	0	0.0235996	0.0141392	0.9889107	0	0.03418589	0.00900674	1.00352478	0	228	506	-1289176061	-1289176061	147
2.093203	-0.032654	0.049316	0.081726	0	0.0153408	0.0122051	0.9818554	0	0.02699542	0.00841522	1.00080013	0	244	506	110487040	110487040	147
2.093235	-0.015320	0.061646	-0.034424	0	0.0091057	0.0106144	0.9795837	0	0.01972938	0.00762606	0.99717116	0	4	507	-363024987	-363024987	147
2.093303	-0.030273	0.061523	-0.127136	0	0.0057106	0.0104141	0.9843750	0	0.01357675	0.00775218	0.99642396	0	20	507	-876072935	-876072935	147
2.117162	-0.060486	0.048218	-0.173157	0	0.0057831	0.0107327	0.9910240	0	0.00940871	0.00798106	1.00004578	0	36	506	1724433063	1724433063	147
2.117189	-0.075317	0.037170	-0.161621	0	0.0090561	0.0106773	0.9937038	0	0.00862241	0.00750756	1.00523305	0	52	507	1042446287	1042446287	147
2.117201	-0.078125	0.026306	-0.099609	0	0.0139389	0.0103130	0.9920406	0	0.01117849	0.00701380	1.00763822	0	68	507	27443014	27443014	147
2.141172	-0.086975	0.017090	-0.015259	0	0.0185776	0.0104599	0.9887314	0	0.01554418	0.00717783	1.00637174	0	84	506	70226181	70226181	147
2.141193	-0.101318	0.010254	0.060608	0	0.0220146	0.0112972	0.9855480	0	0.01992965	0.00794339	1.00364780	0	100	507	2039285122	2039285122	147
2.141206	-0.108582	-0.008301	0.104065	0	0.0242004	0.0117359	0.9830189	0	0.02321362	0.00862455	1.00085497	0	116	506	1552755999	1552755999	147
2.165181	-0.094971	-0.034912	0.115967	0	0.0252094	0.0112801	0.9822006	0	0.02553892	0.00839472	0.99831939	0	132	506	-1047339863	-1047339863	147
2.165264	-0.064514	-0.045288	0.107666	0	0.0248547	0.0106297	0.9843884	0	0.02710843	0.00734591	0.99702239	0	148	506	-82893670	-82893670	147
2.165283	-0.042664	-0.043213	0.079041	0	0.0233040	0.0101967	0.9885712	0	0.02754402	0.00638080	0.99823999	0	164	506	-781873699	-781873699	147
2.189136	-0.042358	-0.046204	0.038940	0	0.0213165	0.0097332	0.9916344	0	0.02657151	0.00615811	1.00141478	0	180	506	199238107	199238107	147
2.189190	-0.046814	-0.047180	0.009766	0	0.0192223	0.0091133	0.9910431	0	0.02408195	0.00636649	1.00375748	0	196	506	-706043097	-706043097	147
2.189203	-0.034363	-0.028931	0.004333	0	0.0171299	0.0086937	0.9875584	0	0.02085829	0.00606298	1.00307369	0	212	506	1425104233	1425104233	147
2.213080	-0.011047	-0.005554	0.027527	0	0.0156212	0.0086365	0.9847794	0	0.01863909	0.00509000	1.00043511	0	228	507	-1738341050	-1738341050	147
2.213102	-0.009277	-0.011353	0.071228	0	0.0151711	0.0087738	0.9851208	0	0.01793432	0.00413728	0.99883676	0	244	507	-1851206236	-1851206236	147
2.213151	-0.039734	-0.034424	0.113159	0	0.0158997	0.0089169	0.9876575	0	0.01803374	0.00348639	0.99936748	0	4	507	1647752334	1647752334	147
2.237078	-0.071411	-0.032471	0.136658	0	0.0175877	0.0089893	0.9896641	0	0.01869845	0.00310469	1.00095272	0	20	506	-1076307820	-1076307820	147
2.237104	-0.080933	-0.002502	0.134216	0	0.0197182	0.0093327	0.9898739	0	0.01980472	0.00323367	1.00263596	0	36	506	-969635607	-969635607	147
2.237151	-0.074707	0.025024	0.108765	0	0.0218410	0.0102444	0.9890804	0	0.02091599	0.00395203	1.00373507	0	52	506	756326256	756326256	147
2.260997	-0.060852	0.031738	0.067810	0	0.0234051	0.0113697	0.9878922	0	0.02169418	0.00500417	1.00354743	0	68	506	305784694	305784694	147
2.261019	-0.048767	0.028564	0.011719	0	0.0242119	0.0122318	0.9864559	0	0.02227378	0.00629354	1.00195456	0	84	506	1346307901	1346307901	147
2.261032	-0.049561	0.034973	-0.051514	0	0.0249233	0.0127659	0.9852371	0	0.02328587	0.00770259	0.99963140	0	100	506	-393272149	-393272149	147
2.284974	-0.051575	0.051697	-0.097412	0	0.0256329	0.0131245	0.9849567	0	0.02494884	0.00864005	0.99790573	0	116	506	1745147520	1745147520	147
2.284996	-0.043518	0.064209	-0.102478	0	0.0252666	0.0130711	0.9862614	0	0.02646470	0.00851250	0.99803734	0	132	507	-926030500	-926030500	147
2.285008	-0.044434	0.068542	-0.068665	0	0.0233116	0.0121670	0.9881210	0	0.02673364	0.00784230	0.99989343	0	148	507	1324890129	1324890129	147
2.308918	-0.060730	0.069824	-0.014221	0	0.0205612	0.0109692	0.9886074	0	0.02552795	0.00737190	1.00181651	0	164	507	-695420225	-695420225	147
2.308991	-0.073303	0.071533	0.050903	0	0.0178719	0.0102863	0.9878273	0	0.02352452	0.00676179	1.00216603	0	180	506	916947628	916947628	147
2.309007	-0.074829	0.078857	0.104675	0	0.0155182	0.0098038	0.9872017	0	0.02134538	0.00587797	1.00105357	0	196	506	112753508	112753508	147
2.332914	-0.071472	0.083862	0.121155	0	0.0138474	0.0092049	0.9873466	0	0.01928520	0.00508618	1.00000501	0	212	506	872687157	872687157	147
2.332983	-0.071167	0.078918	0.116577	0	0.0135212	0.0087776	0.9879112	0	0.01767707	0.00452876	1.00003028	0	228	506	-31564626	-31564626	147
2.333000	-0.076355	0.067200	0.112732	0	0.0145931	0.0087109	0.9883385	0	0.01719832	0.00429630	1.00082684	0	244	506	168920776	168920776	147
2.356846	-0.078979	0.039978	0.098022	0	0.0164776	0.0093021	0.9883175	0	0.01821947	0.00438690	1.00136518	0	4	507	-1638265897	-1638265897	147
2.356871	-0.073792	0.004822	0.067810	0	0.0189362	0.0104923	0.9877129	0	0.02005482	0.00479341	1.00143027	0	20	506	-18856765	-18856765	147
2.356950	-0.063660	-0.015137	0.034607	0	0.0214806	0.0114307	0.9869995	0	0.02198935	0.00540543	1.00160551	0	36	507	-857936	-857936	147
2.380842	-0.052979	-0.025879	0.009705	0	0.0227833	0.0113525	0.9866581	0	0.02368212	0.00582218	1.00139260	0	52	507	-1508387341	-1508387341	147
2.380866	-0.041565	-0.043701	0.005310	0	0.0222874	0.0107021	0.9861584	0	0.02442813	0.00591707	1.00006604	0	68	507	-1137714484	-1137714484	147
2.380878	-0.028320	-0.068542	0.016296	0	0.0208263	0.0107422	0.9856663	0	0.02398896	0.00604081	0.99856448	0	84	506	736165124	736165124	147
2.404845	-0.023926	-0.089722	0.020081	0	0.0187073	0.0112305	0.9865227	0	0.02279758	0.00626111	0.99836469	0	100	506	333990885	333990885	147
2.404869	-0.032532	-0.092224	0.009277	0	0.0158119	0.0109596	0.9881973	0	0.02099228	0.00634909	0.99953485	0	116	506	-696198995	-696198995	147
2.404882	-0.041138	-0.074036	0.002197	0	0.0134678	0.0102406	0.9887009	0	0.01879334	0.00624824	1.00111675	0	132	506	-1528433715	-1528433715	147
2.468753	-0.047913	-0.049316	0.010376	0	0.0133038	0.0096836	0.9882526	0	0.01696038	0.00594330	1.00233912	0	148	506	1096494223	1096494223	147
2.468774	-0.056519	-0.026367	0.018982	0	0.0154514	0.0091724	0.9881725	0	0.01641393	0.00562453	1.00268388	0	164	506	-1726483966	-1726483966	147
2.468789	-0.062012	-0.002502	0.024231	0	0.0188847	0.0092201	0.9882183	0	0.01744485	0.00541329	1.00220799	0	180	506	-1874027756	-1874027756	147
2.468805	-0.068420	0.024475	0.030945	0	0.0225296	0.0100346	0.9878578	0	0.01989651	0.00531554	1.00136185	0	196	507	-384225425	-384225425	147
2.468857	-0.081055	0.051514	0.028809	0	0.0259438	0.0107231	0.9873714	0	0.02360106	0.00577497	1.00034881	0	212	507	1806816999	1806816999	147
2.468869	-0.089294	0.075867	0.029297	0	0.0286617	0.0110035	0.9870224	0	0.02756286	0.00666118	0.99950933	0	228	507	1298505014	1298505014	147
2.468880	-0.087524	0.095947	0.047424	0	0.0296345	0.0113792	0.9867420	0	0.03018475	0.00736833	0.99920416	0	244	507	1347274761	1347274761	147
2.468892	-0.079956	0.109497	0.065308	0	0.0281887	0.0116329	0.9866028	0	0.03083134	0.00795221	0.99941087	0	4	506	-251107038	-251107038	147
2.517693	-0.065125	0.112976	0.071533	0	0.0248623	0.0112591	0.9867325	0	0.03005099	0.00825071	0.99983668	0	20	506	1542987697	1542987697	147
2.517726	-0.051147	0.102051	0.079224	0	0.0204964	0.0107288	0.9868050	0	0.02795291	0.00766230	1.00031948	0	36	506	-2070367436	-2070367436	147
2.517739	-0.044006	0.081177	0.093933	0	0.0159531	0.0104389	0.9869022	0	0.02411079	0.00625038	1.00101423	0	52	506	-149970025	-149970025	147
2.517852	-0.031921	0.061707	0.101990	0	0.0123329	0.0100136	0.9877071	0	0.01937795	0.00487328	1.00166988	0	68	506	-293364836	-293364836	147
2.517871	-0.017639	0.045837	0.095947	0	0.0102406	0.0095119	0.9888382	0	0.01547766	0.00430012	1.00195599	0	84	506	-1287138761	-1287138761	147
2.517886	-0.017761	0.027466	0.081177	0	0.0100040	0.0091610	0.9890156	0	0.01324320	0.00454545	1.00220656	0	100	506	1903643261	1903643261	147
2.557669	-0.036194	0.004700	0.063599	0	0.0118179	0.0088806	0.9881573	0	0.01280022	0.00513196	1.00225496	0	116	507	-277529184	-277529184	147
2.557752	-0.062256	-0.015991	0.046448	0	0.0150337	0.0090961	0.9874172	0	0.01435614	0.00574684	1.00167060	0	132	506	-196869753	-196869753	147
2.557765	-0.083008	-0.028748	0.027893	0	0.0185432	0.0100155	0.9871445	0	0.01745129	0.00619102	1.00079989	0	148	507	-1177333350	-1177333350	147
2.557777	-0.089172	-0.038940	0.009460	0	0.0213928	0.0107346	0.9868393	0	0.02073789	0.00601482	0.99990726	0	164	506	-63049244	-63049244	147
2.557790	-0.074097	-0.048584	0.000732	0	0.0230980	0.0106754	0.9864407	0	0.02342439	0.00539017	0.99916768	0	180	506	1954374616	1954374616	147
2.581625	-0.056396	-0.050293	0.009644	0	0.0235786	0.0104485	0.9861164	0	0.02535582	0.00521946	0.99894786	0	196	506	-1979704598	-1979704598	147
2.581648	-0.060608	-0.048096	0.029175	0	0.0228024	0.0105114	0.9861832	0	0.02618575	0.00579143	0.99922919	0	212	506	212730934	212730934	147
2.581660	-0.069885	-0.049500	0.043884	0	0.0210400	0.0104675	0.9867039	0	0.02581406	0.00653791	0.99969935	0	228	506	1306507796	1306507796	147
2.605609	-0.068848	-0.045471	0.050354	0	0.0189610	0.0101471	0.9869423	0	0.02446914	0.00675035	1.00012422	0	244	506	-1828030144	-1828030144	147
2.605637	-0.065125	-0.027039	0.052368	0	0.0172615	0.0099659	0.9866238	0	0.02239275	0.00660372	1.00043607	0	4	506	413149200	413149200	147
2.605657	-0.057800	0.001221	0.057190	0	0.0163784	0.0101299	0.9866161	0	0.02034569	0.00668836	1.00059915	0	20	507	-1144197387	-1144197387	147
2.629537	-0.052002	0.032166	0.066650	0	0.0165825	0.0103703	0.9873123	0	0.01928329	0.00659776	1.00077033	0	36	507	-1359840795	-1359840795	147
2.629596	-0.058899	0.056274	0.070312	0	0.0178776	0.0104485	0.9877510	0	0.01942277	0.00602674	1.00120878	0	52	506	-1595067592	-1595067592	147
2.629610	-0.073608	0.070923	0.071838	0	0.0198269	0.0104580	0.9875050	0	0.02023697	0.00552201	1.00147653	0	68	506	-483480952	-483480952	147
2.653543	-0.079895	0.080872	0.080933	0	0.0218697	0.0106144	0.9871788	0	0.02123475	0.00532579	1.00104380	0	84	506	-710469453	-710469453	147
2.653566	-0.065796	0.085449	0.086121	0	0.0234413	0.0111771	0.9868374	0	0.02275181	0.00536275	1.00033665	0	100	506	530028014	530028014	147
2.653614	-0.041016	0.088989	0.077271	0	0.0239334	0.0118828	0.9863052	0	0.02461362	0.00566506	0.99985123	0	116	506	-1330495232	-1330495232	147
2.677524	-0.026306	0.089233	0.057007	0	0.0232353	0.0119514	0.9858780	0	0.02536058	0.00608158	0.99952507	0	132	506	1159973697	1159973697	147
2.677546	-0.029724	0.069397	0.029907	0	0.0218105	0.0110645	0.9859142	0	0.02437449	0.00626349	0.99950814	0	148	506	1861544038	1861544038	147
2.677589	-0.045044	0.034668	0.013916	0	0.0199661	0.0097504	0.9863987	0	0.02245998	0.00599051	1.00008655	0	164	506	1313495800	1313495800	147
2.701467	-0.055115	0.009888	0.013794	0	0.0175858	0.0089035	0.9870319	0	0.02073860	0.00527787	1.00086594	0	180	507	1596305860	1596305860	147
2.701495	-0.056213	0.002991	0.004333	0	0.0151024	0.0088463	0.9877834	0	0.01977658	0.00458360	1.00109506	0	196	506	-1282900968	-1282900968	147
2.701512	-0.062073	0.003540	-0.010010	0	0.0136929	0.0091057	0.9883289	0	0.01910663	0.00451398	1.00065422	0	212	507	-2070788983	-2070788983	147
2.725392	-0.069580	-0.000366	-0.006409	0	0.0138149	0.0091343	0.9881210	0	0.01841640	0.00480580	1.00013232	0	228	506	-816241905	-816241905	147
2.725417	-0.069397	-0.009338	0.001099	0	0.0149307	0.0089855	0.9875069	0	0.01806188	0.00488472	1.00013208	0	244	506	-1428039106	-1428039106	147
2.725430	-0.074158	-0.018738	0.005127	0	0.0167046	0.0092220	0.9870892	0	0.01820755	0.00502253	1.00062466	0	4	506	-1634566815	-1634566815	147
2.749375	-0.089966	-0.029907	0.027466	0	0.0190926	0.0099430	0.9871540	0	0.01916265	0.00557041	1.00095463	0	20	506	1270384000	1270384000	147
2.749511	-0.099854	-0.036743	0.055847	0	0.0214806	0.0105953	0.9876385	0	0.02106977	0.00648427	1.00083852	0	36	506	1558860039	1558860039	147
2.749529	-0.095947	-0.035461	0.059265	0	0.0230961	0.0109348	0.9878807	0	0.02304935	0.00749421	1.00066805	0	52	506	2011839920	2011839920	147
2.773372	-0.085876	-0.035950	0.052551	0	0.0239143	0.0113544	0.9876118	0	0.02421927	0.00783849	1.00054812	0	68	506	1694715342	1694715342	147
2.773456	-0.078552	-0.034302	0.052612	0	0.0238552	0.0118580	0.9871559	0	0.02435064	0.00721860	1.00014758	0	84	506	155124950	155124950	147
2.773468	-0.074829	-0.019653	0.046692	0	0.0223999	0.0118256	0.9866753	0	0.02375412	0.00643826	0.99958253	0	100	507	-647285825	-647285825	147
2.797305	-0.060852	-0.005981	0.042114	0	0.0200253	0.0112076	0.9866905	0	0.02307963	0.00616431	0.99930596	0	116	507	-1644013110	-1644013110	147
2.797336	-0.036316	-0.004211	0.054016	0	0.0179405	0.0104427	0.9873562	0	0.02222514	0.00624084	0.99917793	0	132	507	-1588550154	-1588550154	147
2.797403	-0.021790	0.002136	0.067993	0	0.0165787	0.0098839	0.9879265	0	0.02095771	0.00613856	0.99905562	0	148	506	-307304224	-307304224	147
2.821259	-0.028748	0.018433	0.072327	0	0.0158653	0.0097675	0.9881935	0	0.01983619	0.00559664	0.99938440	0	164	506	-475192389	-475192389	147
2.821290	-0.047852	0.028503	0.074768	0	0.0157719	0.0097542	0.9882526	0	0.01897240	0.00483656	1.00007749	0	180	506	1421914428	1421914428	147
2.821351	-0.060852	0.025513	0.071655	0	0.0164185	0.0096149	0.9881840	0	0.01837707	0.00413537	1.00043893	0	196	506	1662136054	1662136054	147
2.845218	-0.060608	0.018005	0.054565	0	0.0178661	0.0095711	0.9883385	0	0.01855087	0.00380063	1.00034618	0	212	507	2116929143	2116929143	147
2.845242	-0.054688	0.012207	0.035645	0	0.0198479	0.0095768	0.9882851	0	0.01938200	0.00417066	1.00012326	0	228	507	-1792380516	-1792380516	147
2.845256	-0.053833	0.011597	0.014893	0	0.0216866	0.0097198	0.9872684	0	0.02055907	0.00496888	0.99979401	0	244	506	-114297635	-114297635	147
2.869203	-0.055298	0.017273	-0.013794	0	0.0228081	0.0102425	0.9860687	0	0.02213907	0.00561595	0.99921227	0	4	507	-1353300698	-1353300698	147
2.869222	-0.045532	0.021973	-0.027893	0	0.0233383	0.0107937	0.9857864	0	0.02379656	0.00595617	0.99857163	0	20	507	1164529221	1164529221	147
2.869235	-0.031921	0.023193	-0.022461	0	0.0232983	0.0108738	0.9859886	0	0.02491808	0.00602698	0.99852586	0	36	507	-2144997458	-2144997458	147
2.893194	-0.035217	0.023804	-0.014893	0	0.0223045	0.0106411	0.9859848	0	0.02519846	0.00597215	0.99919915	0	52	506	-1953357585	-1953357585	147
2.893247	-0.049194	0.024719	-0.001160	0	0.0204067	0.0105724	0.9860992	0	0.02466464	0.00597644	0.99968910	0	68	506	-1343965940	-1343965940	147
2.893260	-0.051758	0.032776	0.019409	0	0.0180855	0.0105705	0.9867287	0	0.02351546	0.00579238	0.99957824	0	84	506	964042798	964042798	147
2.917142	-0.044067	0.045044	0.036560	0	0.0162716	0.0101471	0.9874630	0	0.02186298	0.00518274	0.99970913	0	100	506	-353792495	-353792495	147
2.917198	-0.046387	0.047302	0.053589	0	0.0156536	0.0096283	0.9879646	0	0.01986742	0.00460958	1.00080419	0	116	506	1213581851	1213581851	147
2.917210	-0.060242	0.041504	0.071045	0	0.0158825	0.0097351	0.9883823	0	0.01822305	0.00459814	1.00217366	0	132	506	107916471	107916471	147
2.941145	-0.061096	0.034912	0.080139	0	0.0165081	0.0101109	0.9885273	0	0.01783085	0.00499225	1.00254416	0	148	506	-1507658470	-1507658470	147
2.941168	-0.048218	0.027527	0.080994	0	0.0174484	0.0103416	0.9882126	0	0.01878786	0.00551987	1.00182438	0	164	507	-2103746274	-2103746274	147
2.941228	-0.044373	0.019165	0.078796	0	0.0186863	0.0108051	0.9877968	0	0.02023220	0.00619674	1.00107169	0	180	507	98917060	98917060	147
2.965151	-0.046021	0.004517	0.071533	0	0.0200958	0.0114231	0.9873199	0	0.02132297	0.00688052	1.00090671	0	196	507	659638244	659638244	147
2.965179	-0.042786	-0.014343	0.057068	0	0.0209999	0.0117130	0.9865265	0	0.02196980	0.00742149	1.00100946	0	212	506	-493282972	-493282972	147
2.965198	-0.044556	-0.022705	0.040588	0	0.0208855	0.0115757	0.9860210	0	0.02248597	0.00773501	1.00108981	0	228	506	-933866456	-933866456	147
2.989079	-0.054749	-0.023254	0.032959	0	0.0201855	0.0113716	0.9864902	0	0.02284002	0.00737047	1.00104570	0	244	506	-1581430471	-1581430471	147
2.989105	-0.064758	-0.025269	0.036804	0	0.0193176	0.0112247	0.9875641	0	0.02262139	0.00621533	1.00084162	0	4	506	2111970708	2111970708	147
2.989118	-0.066284	-0.024231	0.040222	0	0.0183392	0.0106392	0.9883099	0	0.02157784	0.00501585	1.00063467	0	20	506	534494792	534494792	147
3.013050	-0.057922	-0.026611	0.036682	0	0.0174732	0.0097637	0.9882298	0	0.01997423	0.00437331	1.00036430	0	36	507	556515601	556515601	147
3.013070	-0.052124	-0.034668	0.032898	0	0.0169392	0.0095444	0.9875336	0	0.01854753	0.00414491	0.99984312	0	52	506	1077908309	1077908309	147
3.013083	-0.054382	-0.032532	0.028625	0	0.0168343	0.0099468	0.9869061	0	0.01798415	0.00406146	0.99947834	0	68	507	-742973972	-742973972	147
3.037097	-0.054077	-0.021545	0.023071	0	0.0174503	0.0100346	0.9869480	0	0.01845789	0.00412011	0.99991250	0	84	507	461003186	461003186	147
3.037156	-0.045959	-0.007202	0.029480	0	0.0188484	0.0096798	0.9872513	0	0.01979828	0.00428605	1.00079346	0	100	507	2095508983	2095508983	147
3.037168	-0.034851	0.018494	0.046326	0	0.0206738	0.0096664	0.9868507	0	0.02165270	0.00464106	1.00137329	0	116	506	-1612479181	-1612479181	147
3.061001	-0.031738	0.041748	0.052612	0	0.0224075	0.0101986	0.9860268	0	0.02343512	0.00553989	1.00147843	0	132	506	-2079173157	-2079173157	147
3.061022	-0.040161	0.046692	0.043213	0	0.0235291	0.0106640	0.9858704	0	0.02482939	0.00671148	1.00121975	0	148	506	1264343184	1264343184	147
3.061070	-0.042419	0.052917	0.038391	0	0.0237846	0.0109749	0.9862709	0	0.02578926	0.00712419	1.00074506	0	164	506	-1032242635	-1032242635	147
3.084969	-0.032837	0.070618	0.045715	0	0.0230103	0.0112076	0.9864330	0	0.02601862	0.00647688	1.00013447	0	180	506	1230031293	1230031293	147
3.084990	-0.031006	0.080322	0.045044	0	0.0213737	0.0108376	0.9863186	0	0.02528501	0.00577807	0.99954200	0	196	506	1448323335	1448323335	147
3.085033	-0.038269	0.070190	0.037109	0	0.0193462	0.0099869	0.9862785	0	0.02382207	0.00588036	0.99916649	0	212	506	-252531569	-252531569	147
3.108907	-0.037231	0.047607	0.035645	0	0.0172119	0.0094109	0.9867935	0	0.02188897	0.00619864	0.99906635	0	228	507	1732790956	1732790956	147
3.108928	-0.030212	0.032166	0.029602	0	0.0154305	0.0092182	0.9879589	0	0.01943135	0.00591135	0.99932861	0	244	507	1793968046	1793968046	147
3.108940	-0.035095	0.035339	0.018127	0	0.0143661	0.0091305	0.9887123	0	0.01704025	0.00551200	0.99995756	0	4	507	824693116	824693116	147
3.132917	-0.047974	0.032593	0.016663	0	0.0140896	0.0092449	0.9883499	0	0.01601601	0.00549889	1.00074983	0	20	507	28115847	28115847	147
3.132938	-0.048950	0.000549	0.019592	0	0.0146809	0.0097389	0.9876385	0	0.01656342	0.00551152	1.00133848	0	36	506	-332891858	-332891858	147
3.132951	-0.040771	-0.032532	0.011475	0	0.0160542	0.0102768	0.9874783	0	0.01758361	0.00554276	1.00125337	0	52	506	-2112289990	-2112289990	147
3.156934	-0.039917	-0.036682	-0.006226	0	0.0180607	0.0105076	0.9877033	0	0.01834321	0.00565624	1.00083566	0	68	506	-2088109975	-2088109975	147
3.157008	-0.049866	-0.028503	-0.011108	0	0.0201931	0.0107670	0.9875736	0	0.01908207	0.00559258	1.00081205	0	84	506	1309036905	1309036905	147
3.157021	-0.057556	-0.028259	0.010254	0	0.0217934	0.0112591	0.9871635	0	0.02035165	0.00571036	1.00079036	0	100	506	510665859	510665859	147
3.180846	-0.052551	-0.035339	0.033936	0	0.0226536	0.0115681	0.9869404	0	0.02230239	0.00630140	1.00045705	0	116	506	-268108639	-268108639	147
3.180899	-0.040161	-0.040161	0.035461	0	0.0227337	0.0113106	0.9869728	0	0.02409434	0.00679708	1.00034380	0	132	506	2054487028	2054487028	147
3.180912	-0.030090	-0.027649	0.024963	0	0.0220718	0.0105686	0.9873447	0	0.02442312	0.00673771	1.00048351	0	148	507	-803049994	-803049994	147
3.204836	-0.034485	-0.003052	0.020752	0	0.0209770	0.0096722	0.9878254	0	0.02330565	0.00624752	1.00054765	0	164	506	-669298445	-669298445	147
3.204861	-0.048767	0.012390	0.024292	0	0.0198784	0.0088482	0.9878254	0	0.02212572	0.00560689	1.00049973	0	180	507	1242640510	1242640510	147
3.204955	-0.056030	0.024231	0.031006	0	0.0186024	0.0084057	0.9873753	0	0.02158666	0.00496197	1.00022960	0	196	506	1289103506	1289103506	147
3.228805	-0.056641	0.039856	0.047058	0	0.0170307	0.0085678	0.9871006	0	0.02130342	0.00450230	0.99994230	0	212	506	1026631205	1026631205	147
3.228827	-0.058716	0.042786	0.070740	0	0.0164623	0.0091381	0.9871330	0	0.02112293	0.00444102	0.99998689	0	228	506	981896258	981896258	147
3.228839	-0.061646	0.032043	0.080078	0	0.0178375	0.0099869	0.9870548	0	0.02121687	0.00481129	0.99992418	0	244	506	1646041323	1646041323	147
3.277729	-0.061096	0.019287	0.067017	0	0.0200214	0.0109692	0.9868336	0	0.02166629	0.00556493	0.99981642	0	4	506	-384828596	-384828596	147
3.277750	-0.063232	0.012268	0.049072	0	0.0213795	0.0115166	0.9866123	0	0.02236843	0.00641084	1.00036764	0	20	506	-1707959036	-1707959036	147
3.277763	-0.070068	0.023193	0.044739	0	0.0217438	0.0114021	0.9864674	0	0.02288222	0.00715828	1.00118136	0	36	506	-1997445814	-1997445814	147
3.277805	-0.075195	0.042603	0.047852	0	0.0217915	0.0111752	0.9865551	0	0.02311683	0.00780368	1.00141835	0	52	507	-1037859849	-1037859849	147
3.277817	-0.078247	0.045227	0.036560	0	0.0213985	0.0109825	0.9867611	0	0.02323937	0.00791168	1.00080395	0	68	507	-1593802714	-1593802714	147
3.277829	-0.075806	0.033325	0.015686	0	0.0204315	0.0105190	0.9867496	0	0.02273393	0.00722408	0.99986839	0	84	507	-2090185530	-2090185530	147
3.341634	-0.070740	0.018616	0.003906	0	0.0190639	0.0101280	0.9867039	0	0.02150035	0.00642467	0.99987197	0	100	506	1553492961	1553492961	147
3.341699	-0.072449	0.000977	-0.000488	0	0.0172787	0.0099068	0.9870491	0	0.02051473	0.00616550	1.00097108	0	116	506	-256170987	-256170987	147
3.341711	-0.078979	-0.015747	0.000244	0	0.0159702	0.0094872	0.9877014	0	0.01996231	0.00601125	1.00182867	0	132	506	-1053236157	-1053236157	147
3.341724	-0.086365	-0.024597	0.009766	0	0.0158291	0.0090771	0.9882832	0	0.01912594	0.00549436	1.00184321	0	148	506	946761585	946761585	147
3.341735	-0.090698	-0.017883	0.023071	0	0.0162811	0.0088615	0.9884243	0	0.01837754	0.00512791	1.00161600	0	164	506	-1318894952	-1318894952	147
3.341770	-0.088745	0.004089	0.034546	0	0.0171547	0.0089283	0.9880981	0	0.01868939	0.00545239	1.00147510	0	180	506	-226666006	-226666006	147
3.341782	-0.079407	0.026245	0.043579	0	0.0185966	0.0097218	0.9875240	0	0.01977229	0.00600696	1.00132108	0	196	506	1260770007	1260770007	147
3.341794	-0.061340	0.041199	0.044861	0	0.0202675	0.0109348	0.9868889	0	0.02080488	0.00601697	1.00105619	0	212	507	1199197645	1199197645	147
3.365656	-0.045166	0.048584	0.037720	0	0.0217133	0.0115967	0.9866524	0	0.02163911	0.00576448	1.00041604	0	228	506	-1975473640	-1975473640	147
3.365687	-0.041321	0.043213	0.032837	0	0.0224457	0.0114365	0.9868946	0	0.02250266	0.00604081	0.99955320	0	244	506	985244936	985244936	147
3.365705	-0.041809	0.031860	0.027649	0	0.0224571	0.0108166	0.9868660	0	0.02342415	0.00654006	0.99913192	0	4	506	1388003197	1388003197	147
3.389583	-0.040283	0.026123	0.012512	0	0.0221348	0.0101852	0.9864864	0	0.02387953	0.00633025	0.99936390	0	20	506	-917196651	-917196651	147
3.389650	-0.036011	0.027039	0.005005	0	0.0213394	0.0097294	0.9865894	0	0.02333570	0.00542164	1.00004697	0	36	506	1274015714	1274015714	147
3.389666	-0.034790	0.033142	0.019653	0	0.0198326	0.0095577	0.9871025	0	0.02203989	0.00458455	1.00078535	0	52	506	-672794459	-672794459	147
3.413535	-0.047913	0.038879	0.041687	0	0.0179005	0.0096893	0.9873619	0	0.02060175	0.00429368	1.00132203	0	68	506	1673131765	1673131765	147
3.413559	-0.062378	0.033264	0.054138	0	0.0163727	0.0094814	0.9875164	0	0.01924467	0.00454473	1.00186682	0	84	506	-1747350779	-1747350779	147
3.413608	-0.068481	0.020264	0.052063	0	0.0161152	0.0089588	0.9876766	0	0.01819468	0.00524974	1.00232863	0	100	506	-849985520	-849985520	147
3.437579	-0.076172	0.013306	0.044922	0	0.0171051	0.0090866	0.9876003	0	0.01795673	0.00607395	1.00224733	0	116	507	1496717002	1496717002	147
3.437611	-0.078979	0.005432	0.041077	0	0.0186005	0.0099182	0.9873104	0	0.01863265	0.00638628	1.00168347	0	132	507	1901344810	1901344810	147
3.437675	-0.072510	-0.011047	0.037109	0	0.0198841	0.0107594	0.9868488	0	0.01984358	0.00637007	1.00126314	0	148	506	1537842045	1537842045	147
3.461521	-0.068481	-0.017456	0.027954	0	0.0208511	0.0112705	0.9863491	0	0.02120781	0.00681782	1.00118947	0	164	506	-351160895	-351160895	147
3.461550	-0.066833	-0.003723	0.016479	0	0.0219326	0.0115089	0.9861584	0	0.02257085	0.00753570	1.00087357	0	180	506	-1177502065	-1177502065	147
3.461563	-0.056763	0.015076	0.011597	0	0.0229397	0.0114784	0.9862919	0	0.02365613	0.00768209	1.00019598	0	196	506	-2033365685	-2033365685	147
3.485486	-0.042664	0.024231	0.013184	0	0.0230026	0.0111122	0.9864388	0	0.02393484	0.00731063	0.99975777	0	212	506	-2006117609	-2006117609	147
3.485509	-0.039307	0.026611	0.015015	0	0.0219212	0.0107574	0.9864407	0	0.02350259	0.00708580	0.99970984	0	228	506	1823792729	1823792729	147
3.485521	-0.046875	0.031067	0.021667	0	0.0204983	0.0105343	0.9864502	0	0.02292180	0.00704432	0.99996281	0	244	506	788789956	788789956	147
3.509503	-0.053467	0.035095	0.036804	0	0.0194359	0.0101337	0.9868698	0	0.02241397	0.00669336	1.00047684	0	4	506	-1840668933	-1840668933	147
3.509534	-0.049988	0.034668	0.054382	0	0.0185432	0.0098743	0.9876823	0	0.02193952	0.00582862	1.00098133	0	20	506	976954895	976954895	147
3.509553	-0.043396	0.034546	0.070312	0	0.0175266	0.0100536	0.9884949	0	0.02141881	0.00472212	1.00137377	0	36	506	1607536552	1607536552	147
3.533416	-0.050842	0.040283	0.082275	0	0.0168591	0.0102272	0.9889603	0	0.02093649	0.00399446	1.00168777	0	52	506	-1362140434	-1362140434	147
3.533487	-0.069519	0.038635	0.090088	0	0.0170097	0.0103893	0.9887810	0	0.02058744	0.00427866	1.00183463	0	68	507	1506673212	1506673212	147
3.533500	-0.074402	0.016418	0.090759	0	0.0176449	0.0109921	0.9881535	0	0.02047420	0.00532913	1.00186729	0	84	506	-1783950003	-1783950003	147
3.557444	-0.057434	0.000366	0.070862	0	0.0184250	0.0115852	0.9873123	0	0.02087402	0.00621653	1.00179958	0	100	506	488951549	488951549	147
3.557473	-0.039917	0.008972	0.036499	0	0.0195103	0.0115662	0.9864731	0	0.02170539	0.00665236	1.00157404	0	116	506	1867307591	1867307591	147
3.557531	-0.035828	0.014771	0.013428	0	0.0207386	0.0112572	0.9861012	0	0.02252984	0.00701356	1.00116968	0	132	506	1261923462	1261923462	147
3.581395	-0.041138	0.005310	0.003418	0	0.0215435	0.0109158	0.9860611	0	0.02318573	0.00744534	1.00054860	0	148	506	1878578775	1878578775	147
3.581415	-0.048523	-0.001282	0.000671	0	0.0214405	0.0103798	0.9862843	0	0.02346277	0.00760293	1.00009394	0	164	506	-765167210	-765167210	147
3.581481	-0.049133	0.000122	0.009033	0	0.0202541	0.0097675	0.9870014	0	0.02297926	0.00721812	1.00005937	0	180	506	-221039692	-221039692	147
3.605374	-0.038635	0.001648	0.018311	0	0.0187016	0.0092621	0.9878845	0	0.02203679	0.00642490	1.00010228	0	196	507	312581796	312581796	147
3.605402	-0.030701	0.000549	0.026611	0	0.0177212	0.0087910	0.9885807	0	0.02117801	0.00559926	1.00014782	0	212	507	1601817243	1601817243	147
3.605420	-0.040833	-0.004761	0.042419	0	0.0173473	0.0085201	0.9889488	0	0.02017164	0.00529313	1.00022054	0	228	507	-1725655154	-1725655154	147
3.629322	-0.060730	-0.010132	0.059326	0	0.0174999	0.0087814	0.9889336	0	0.01896882	0.00541115	1.00002551	0	244	506	-1243960182	-1243960182	147
3.629344	-0.075439	-0.005005	0.070801	0	0.0184689	0.0093498	0.9886189	0	0.01841593	0.00547481	0.99963689	0	4	506	-2109863902	-2109863902	147
3.629357	-0.083191	0.011169	0.074219	0	0.0197792	0.0099010	0.9880123	0	0.01903844	0.00574422	0.99956179	0	20	506	2029718254	2029718254	147
3.653279	-0.083130	0.033875	0.071655	0	0.0207310	0.0105820	0.9874439	0	0.02050257	0.00625300	0.99974871	0	36	506	843971204	843971204	147
3.653341	-0.070984	0.052551	0.072083	0	0.0216789	0.0112190	0.9871845	0	0.02226067	0.00654650	0.99978733	0	52	506	1671356471	1671356471	147
3.653353	-0.055176	0.053833	0.070740	0	0.0227604	0.0115070	0.9869709	0	0.02380347	0.00677443	0.99999619	0	68	506	1977214444	1977214444	147
3.677308	-0.053162	0.046448	0.061279	0	0.0231991	0.0116673	0.9868069	0	0.02462602	0.00734377	1.00054502	0	84	506	1835326986	1835326986	147
3.677361	-0.065125	0.043701	0.053528	0	0.0226669	0.0115891	0.9870090	0	0.02450681	0.00802064	1.00078511	0	100	507	386180742	386180742	147
3.677373	-0.072754	0.044128	0.050720	0	0.0213718	0.0109673	0.9873543	0	0.02369523	0.00821686	1.00055146	0	116	507	-2117249329	-2117249329	147
3.701292	-0.069031	0.038635	0.050842	0	0.0194950	0.0100002	0.9874496	0	0.02262568	0.00785089	1.00026059	0	132	506	-1923076042	-1923076042	147
3.701318	-0.065308	0.025635	0.056458	0	0.0174999	0.0092220	0.9875011	0	0.02141309	0.00717163	1.00006318	0	148	506	1500431893	1500431893	147
3.701380	-0.067566	0.016052	0.063049	0	0.0161419	0.0091763	0.9877777	0	0.01983523	0.00630021	1.00025105	0	164	506	-292952737	-292952737	147
3.725197	-0.069153	0.010681	0.065979	0	0.0157776	0.0096912	0.9883938	0	0.01813269	0.00563455	1.00106430	0	180	506	-1739098350	-1739098350	147
3.725227	-0.066406	0.004700	0.069702	0	0.0160351	0.0101147	0.9891758	0	0.01711774	0.00544405	1.00202942	0	196	506	-889592471	-889592471	147
3.725244	-0.068115	0.001892	0.076111	0	0.0165634	0.0101318	0.9892712	0	0.01722312	0.00513697	1.00249720	0	212	506	-1107606830	-1107606830	147
3.749141	-0.075684	-0.002502	0.074585	0	0.0176086	0.0099525	0.9884529	0	0.01815605	0.00463986	1.00216675	0	228	506	1794738937	1794738937	147
3.749165	-0.074585	-0.013794	0.050781	0	0.0191383	0.0101795	0.9875736	0	0.01944852	0.00471091	1.00127602	0	244	506	-1630398086	-1630398086	147
3.749177	-0.059570	-0.018738	0.009766	0	0.0205650	0.0109158	0.9869404	0	0.02094913	0.00517273	1.00030422	0	4	507	-2118759459	-2118759459	147
3.773185	-0.042725	-0.009216	-0.018005	0	0.0215931	0.0114727	0.9862309	0	0.02245426	0.00544524	0.99957490	0	20	507	865919101	865919101	147
3.773211	-0.038757	0.004089	-0.017273	0	0.0221348	0.0113125	0.9858723	0	0.02354622	0.00591946	0.99930787	0	36	507	-2106418768	-2106418768	147
3.773223	-0.044250	0.014221	-0.006653	0	0.0220165	0.0105705	0.9863071	0	0.02412057	0.00690341	0.99951744	0	52	506	1803190547	1803190547	147
3.797089	-0.046143	0.022400	0.007446	0	0.0211430	0.0099621	0.9870281	0	0.02424026	0.00748324	0.99996805	0	68	506	-663813396	-663813396	147
3.797165	-0.041626	0.026611	0.033203	0	0.0197487	0.0098782	0.9874916	0	0.02394366	0.00686860	1.00021052	0	84	506	535466768	535466768	147
3.797183	-0.035706	0.023743	0.061523	0	0.0185833	0.0099106	0.9874306	0	0.02318168	0.00584149	1.00010967	0	100	506	-1401082903	-1401082903	147
3.821213	-0.043396	0.022522	0.080750	0	0.0179482	0.0098553	0.9868011	0	0.02179551	0.00522113	1.00005651	0	116	506	1408203132	1408203132	147
3.821284	-0.063904	0.030701	0.092957	0	0.0175056	0.0101032	0.9864349	0	0.02020168	0.00460219	1.00022006	0	132	506	-1124033348	-1124033348	147
3.821376	-0.066589	0.040100	0.103333	0	0.0174637	0.0105515	0.9870567	0	0.01915574	0.00393581	1.00053501	0	148	506	354906575	354906575	147
3.845057	-0.048706	0.039734	0.108887	0	0.0180550	0.0107040	0.9879761	0	0.01897240	0.00384378	1.00092363	0	164	506	2048762743	2048762743	147
3.845079	-0.042419	0.023804	0.103149	0	0.0188808	0.0107937	0.9882889	0	0.01966047	0.00445104	1.00127864	0	180	507	-1480072729	-1480072729	147
3.845125	-0.056335	0.000366	0.083008	0	0.0196724	0.0111408	0.9879742	0	0.02077770	0.00553989	1.00155020	0	196	506	1540660549	1540660549	147
3.869079	-0.072205	-0.010437	0.057312	0	0.0205383	0.0114231	0.9871922	0	0.02156711	0.00677443	1.00145841	0	212	507	-1427445070	-1427445070	147
3.869100	-0.072815	-0.001282	0.038330	0	0.0214329	0.0115376	0.9864349	0	0.02206922	0.00761652	1.00081635	0	228	506	-654907716	-654907716	147
3.869112	-0.061218	0.008972	0.022949	0	0.0217400	0.0116196	0.9864159	0	0.02266693	0.00788546	1.00013232	0	244	506	-1553174622	-1553174622	147
3.893002	-0.057251	0.007935	0.009949	0	0.0210686	0.0113277	0.9866982	0	0.02290893	0.00776529	0.99986219	0	4	506	-956052056	-956052056	147
3.893031	-0.060852	0.002930	0.005371	0	0.0198784	0.0104084	0.9867516	0	0.02239180	0.00716376	0.99972486	0	20	506	-978692246	-978692246	147
3.893049	-0.061157	-0.007019	0.005676	0	0.0186253	0.0094109	0.9871273	0	0.02150512	0.00608730	0.99968743	0	36	506	524513854	524513854	147
3.916934	-0.060181	-0.018860	0.003113	0	0.0177422	0.0090504	0.9876537	0	0.02056766	0.00493288	1.00000215	0	52	506	1130821653	1130821653	147
3.916995	-0.061157	-0.019226	0.004761	0	0.0175056	0.0093021	0.9875050	0	0.01956034	0.00410819	1.00038075	0	68	506	-856524638	-856524638	147
3.917007	-0.067749	-0.008972	0.023560	0	0.0175419	0.0095253	0.9870148	0	0.01870084	0.00386000	1.00066829	0	84	507	314550827	314550827	147
3.940957	-0.076050	0.004028	0.048645	0	0.0178318	0.0096092	0.9866009	0	0.01841474	0.00420618	1.00076866	0	100	507	-1547479916	-1547479916	147
3.941012	-0.075928	0.015625	0.060913	0	0.0188293	0.0100327	0.9859905	0	0.01904869	0.00489330	1.00030494	0	116	507	1440958070	1440958070	147
3.941025	-0.073303	0.020691	0.055969	0	0.0203114	0.0106850	0.9856033	0	0.02061534	0.00545764	0.99954844	0	132	506	-810831913	-810831913	147
3.964913	-0.069702	0.016052	0.044800	0	0.0217323	0.0112381	0.9860020	0	0.02256060	0.00576067	0.99923992	0	148	506	865205324	865205324	147
3.964934	-0.059265	0.010071	0.039978	0	0.0227909	0.0116005	0.9866409	0	0.02423573	0.00616646	0.99955392	0	164	506	1852793262	1852793262	147
3.964982	-0.056091	0.013977	0.033447	0	0.0228863	0.0114346	0.9869022	0	0.02514148	0.00683570	1.00011516	0	180	506	1894354714	1894354714	147
3.988880	-0.059204	0.024536	0.019043	0	0.0217342	0.0108376	0.9869461	0	0.02497220	0.00739837	1.00066662	0	196	506	332930308	332930308	147
3.988902	-0.052429	0.029907	0.011047	0	0.0201416	0.0104332	0.9869728	0	0.02409482	0.00742412	1.00115418	0	212	506	-1863429157	-1863429157	147
3.988914	-0.045959	0.022827	0.017761	0	0.0186043	0.0102329	0.9869385	0	0.02288198	0.00682926	1.00124288	0	228	506	-1935002602	-1935002602	147
4.012879	-0.047668	0.010376	0.027588	0	0.0169773	0.0098038	0.9870586	0	0.02135420	0.00589156	1.00080848	0	244	507	-194140734	-194140734	147
4.012900	-0.053772	0.008545	0.029968	0	0.0157776	0.0093803	0.9873333	0	0.02002335	0.00514030	1.00051856	0	4	507	669400607	669400607	147
4.012913	-0.059814	0.012268	0.033691	0	0.0157261	0.0095062	0.9874134	0	0.01920652	0.00480700	1.00049353	0	20	507	2081416022	2081416022	147
4.036816	-0.061890	0.007507	0.046204	0	0.0166759	0.0099659	0.9872379	0	0.01862311	0.00475883	1.00028157	0	36	506	1446994137	1446994137	147
4.036841	-0.066589	0.003967	0.049866	0	0.0179062	0.0103302	0.9869213	0	0.01850319	0.00515866	1.00017071	0	52	506	1045919431	1045919431	147
4.036853	-0.068726	0.011414	0.036072	0	0.0188694	0.0106106	0.9865704	0	0.01917171	0.00591683	1.00040698	0	68	506	437036045	437036045	147
4.060836	-0.068420	0.019348	0.025146	0	0.0198975	0.0106983	0.9861469	0	0.02023625	0.00623012	1.00054622	0	84	506	-876320988	-876320988	147
4.060906	-0.073303	0.018005	0.018982	0	0.0214062	0.0108013	0.9859066	0	0.02133632	0.00604057	1.00045824	0	100	506	-419644159	-419644159	147
4.060922	-0.065125	0.010559	0.005737	0	0.0225735	0.0113792	0.9861679	0	0.02253628	0.00620437	1.00043464	0	116	506	1179930109	1179930109	147
4.084793	-0.043579	0.008606	0.000244	0	0.0224495	0.0118427	0.9866905	0	0.02359223	0.00657034	1.00031972	0	132	507	165619332	165619332	147
4.084815	-0.035583	0.016785	0.012817	0	0.0214577	0.0114136	0.9872589	0	0.02391124	0.00628257	0.99988651	0	148	507	917710676	917710676	147
4.084863	-0.047119	0.024902	0.024170	0	0.0203094	0.0104752	0.9877510	0	0.02338839	0.00562549	0.99965072	0	164	507	138081378	138081378	147
4.133690	-0.059143	0.025452	0.026367	0	0.0191631	0.0096226	0.9879589	0	0.02233839	0.00525284	0.99987721	0	180	507	-1344169456	-1344169456	147
4.133713	-0.059692	0.022095	0.039978	0	0.0181866	0.0089798	0.9879742	0	0.02115726	0.00499964	0.99990249	0	196	506	1522734277	1522734277	147
4.133758	-0.063782	0.020691	0.064392	0	0.0174007	0.0087318	0.9880505	0	0.02031231	0.00468230	0.99960995	0	212	505	-900994210	-900994210	147
4.133770	-0.074585	0.021545	0.073547	0	0.0167503	0.0091133	0.9880714	0	0.02001667	0.00443053	0.99963903	0	228	506	-418736600	-418736600	147
4.133782	-0.072998	0.011841	0.070190	0	0.0166588	0.0099468	0.9877186	0	0.02006364	0.00429487	0.99996853	0	244	506	-1572490494	-1572490494	147
4.133794	-0.061523	-0.008850	0.071167	0	0.0175762	0.0107193	0.9872532	0	0.02002788	0.00440454	1.00024652	0	4	506	-883352447	-883352447	147
4.197617	-0.062073	-0.015930	0.067932	0	0.0191288	0.0113201	0.9871769	0	0.01988888	0.00497031	1.00036192	0	20	506	-1034161886	-1034161886	147
4.197638	-0.076111	-0.003113	0.060425	0	0.0203400	0.0116882	0.9872513	0	0.02019072	0.00593233	1.00010419	0	36	506	1489669498	1489669498	147
4.197650	-0.078186	0.011475	0.058960	0	0.0209370	0.0115967	0.9870548	0	0.02118778	0.00682116	0.99954510	0	52	506	1791594994	1791594994	147
4.197662	-0.058228	0.017761	0.046997	0	0.0211716	0.0114613	0.9866848	0	0.02240896	0.00720620	0.99925399	0	68	507	1027892981	1027892981	147
4.197708	-0.040283	0.011902	0.019226	0	0.0208836	0.0114384	0.9864292	0	0.02330470	0.00721097	0.99945021	0	84	507	1427646828	1427646828	147
4.197720	-0.039795	-0.005493	-0.001709	0	0.0201015	0.0109100	0.9866409	0	0.02341843	0.00692034	0.99976134	0	100	507	-891747657	-891747657	147
4.197732	-0.044373	-0.020996	-0.005066	0	0.0191460	0.0099373	0.9874077	0	0.02249455	0.00620246	1.00015926	0	116	506	-1969635099	-1969635099	147
4.197762	-0.049072	-0.024841	0.005493	0	0.0181999	0.0092678	0.9882393	0	0.02122307	0.00544167	1.00091267	0	132	506	-1707988854	-1707988854	147
4.221565	-0.061157	-0.021057	0.024170	0	0.0175076	0.0092354	0.9884071	0	0.02028608	0.00494862	1.00164151	0	148	506	-777024114	-777024114	147
4.221594	-0.069458	-0.011169	0.043152	0	0.0172672	0.0095520	0.9878216	0	0.01955056	0.00461721	1.00182414	0	164	506	-1849260269	-1849260269	147
4.221611	-0.058228	0.006531	0.055054	0	0.0175381	0.0097961	0.9870491	0	0.01934481	0.00452113	1.00151277	0	180	506	669859860	669859860	147
4.245552	-0.041016	0.030396	0.055908	0	0.0182323	0.0100021	0.9865723	0	0.02020073	0.00460720	1.00087285	0	196	506	2028205142	2028205142	147
4.245574	-0.035461	0.054749	0.046936	0	0.0192394	0.0104198	0.9866447	0	0.02158546	0.00473690	1.00015521	0	212	506	2085156183	2085156183	147
4.245586	-0.041565	0.063721	0.035156	0	0.0205021	0.0109386	0.9870052	0	0.02273774	0.00516534	0.99988818	0	228	507	-436758950	-436758950	147
4.269549	-0.054260	0.051697	0.029236	0	0.0216236	0.0111866	0.9872437	0	0.02354193	0.00602031	1.00009990	0	244	506	-1921667167	-1921667167	147
4.269622	-0.060059	0.039612	0.030090	0	0.0221920	0.0111637	0.9872532	0	0.02376390	0.00691938	1.00044012	0	4	507	-1728835178	-1728835178	147
4.269639	-0.052551	0.038330	0.031372	0	0.0220947	0.0110855	0.9871044	0	0.02321076	0.00753593	1.00080681	0	20	506	-2039615327	-2039615327	147
4.293450	-0.044983	0.034790	0.031372	0	0.0211868	0.0107536	0.9869614	0	0.02261162	0.00773978	1.00085258	0	36	506	1971938205	1971938205	147
4.293618	-0.048340	0.023254	0.034546	0	0.0195198	0.0100842	0.9867401	0	0.02242374	0.00750923	1.00043130	0	52	506	-1661542771	-1661542771	147
4.293639	-0.059143	0.006470	0.041626	0	0.0175858	0.0094147	0.9867649	0	0.02193832	0.00704360	1.00029421	0	68	506	1306611396	1306611396	147
4.317453	-0.063721	-0.013306	0.046143	0	0.0161552	0.0090694	0.9875202	0	0.02068138	0.00654268	1.00081611	0	84	507	-1012315910	-1012315910	147
4.317477	-0.058655	-0.023315	0.041992	0	0.0156364	0.0091133	0.9885674	0	0.01916075	0.00610018	1.00136542	0	100	506	579046159	579046159	147
4.317527	-0.058289	-0.014771	0.031616	0	0.0158367	0.0094585	0.9891796	0	0.01821756	0.00564981	1.00149989	0	116	506	1115766838	1115766838	147
4.341413	-0.069397	0.000854	0.025757	0	0.0168095	0.0100918	0.9892178	0	0.01829672	0.00516772	1.00134540	0	132	507	-279081787	-279081787	147
4.341443	-0.079224	0.011230	0.026550	0	0.0185642	0.0109844	0.9889297	0	0.01902604	0.00482678	1.00120020	0	148	507	1789842911	1789842911	147
4.341507	-0.077454	0.016602	0.018433	0	0.0202007	0.0117798	0.9882317	0	0.01993465	0.00478005	1.00095296	0	164	506	-810791035	-810791035	147
4.365366	-0.070557	0.021729	0.000183	0	0.0210609	0.0121078	0.9871197	0	0.02115011	0.00525022	1.00009918	0	180	506	-1962026758	-1962026758	147
4.365392	-0.069946	0.024048	-0.005188	0	0.0218105	0.0120430	0.9861565	0	0.02276278	0.00621390	0.99901271	0	196	506	1064672604	1064672604	147
4.365404	-0.073425	0.014893	0.008850	0	0.0226421	0.0116997	0.9859028	0	0.02442813	0.00711584	0.99884057	0	212	506	1441293121	1441293121	147
4.389385	-0.073730	0.002686	0.025085	0	0.0225468	0.0112286	0.9863796	0	0.02541399	0.00751734	0.99991274	0	228	506	-317665702	-317665702	147
4.389416	-0.075195	0.007324	0.031982	0	0.0214081	0.0108681	0.9870834	0	0.02519250	0.00739312	1.00123215	0	244	506	-1998643323	-1998643323	147
4.389431	-0.078979	0.019897	0.037292	0	0.0199356	0.0103512	0.9878311	0	0.02397799	0.00693035	1.00177431	0	4	506	-428616991	-428616991	147
4.413351	-0.079895	0.017334	0.048767	0	0.0185642	0.0096397	0.9883823	0	0.02217126	0.00637150	1.00164390	0	20	506	1416468271	1416468271	147
4.413408	-0.074829	0.010376	0.060486	0	0.0175533	0.0091095	0.9882641	0	0.02028990	0.00567198	1.00167871	0	36	507	145104002	145104002	147
4.413421	-0.066101	0.019531	0.065063	0	0.0169601	0.0089169	0.9878139	0	0.01896024	0.00471449	1.00207138	0	52	507	-828376966	-828376966	147
4.437339	-0.063416	0.034363	0.064331	0	0.0169468	0.0093021	0.9873257	0	0.01840615	0.00396967	1.00207973	0	68	507	1714473681	1714473681	147
4.437393	-0.062622	0.032837	0.062683	0	0.0175591	0.0102100	0.9869614	0	0.01881433	0.00402927	1.00174570	0	84	507	623583022	623583022	147
4.437406	-0.059631	0.010803	0.051086	0	0.0185394	0.0111847	0.9872589	0	0.02029920	0.00478029	1.00171113	0	100	506	1614874908	1614874908	147
4.461306	-0.067810	-0.015686	0.023560	0	0.0198498	0.0117912	0.9878464	0	0.02217841	0.00579238	1.00156069	0	116	506	-1452389891	-1452389891	147
4.461326	-0.084229	-0.024780	0.001770	0	0.0212116	0.0117874	0.9879303	0	0.02347779	0.00673699	1.00085139	0	132	506	1074558332	1074558332	147
4.461373	-0.090088	-0.017761	0.007996	0	0.0219841	0.0113316	0.9874859	0	0.02391362	0.00744057	1.00024772	0	148	506	-1220396515	-1220396515	147
4.485313	-0.079041	-0.016541	0.025269	0	0.0218620	0.0108089	0.9867859	0	0.02369571	0.00791335	1.00027013	0	164	506	-1116788572	-1116788572	147
4.485336	-0.065674	-0.022461	0.020447	0	0.0209141	0.0104160	0.9863377	0	0.02289343	0.00797963	1.00049853	0	180	506	1232698619	1232698619	147
4.485348	-0.066101	-0.019043	0.007080	0	0.0196056	0.0099716	0.9865780	0	0.02187252	0.00741005	1.00042534	0	196	507	1818831725	1818831725	147
4.509234	-0.073853	-0.008240	0.018677	0	0.0185642	0.0093975	0.9870262	0	0.02130818	0.00647235	1.00013661	0	212	507	-659934655	-659934655	147
4.509255	-0.077087	-0.000183	0.036316	0	0.0179482	0.0089684	0.9872551	0	0.02098727	0.00580549	0.99994135	0	228	507	956121209	956121209	147
4.509267	-0.081665	0.008667	0.031921	0	0.0174694	0.0088539	0.9877033	0	0.02022576	0.00553393	0.99988818	0	244	506	1639226765	1639226765	147
4.533195	-0.088928	0.017273	0.021240	0	0.0171375	0.0091858	0.9883957	0	0.01948118	0.00521517	0.99996662	0	4	506	-70475182	-70475182	147
4.533217	-0.084900	0.018494	0.026123	0	0.0175152	0.0097942	0.9887466	0	0.01979995	0.00498295	1.00016379	0	20	506	1494325913	1494325913	147
4.533230	-0.067383	0.012512	0.041504	0	0.0185394	0.0100288	0.9885273	0	0.02101874	0.00528312	1.00007987	0	36	506	-580771525	-580771525	147
4.557184	-0.049622	0.003967	0.050598	0	0.0194836	0.0100574	0.9879742	0	0.02218246	0.00592518	0.99953270	0	52	506	1480047322	1480047322	147
4.557251	-0.043701	0.003479	0.046448	0	0.0203438	0.0104084	0.9873466	0	0.02296829	0.00650787	0.99904084	0	68	506	-1098638537	-1098638537	147
4.557264	-0.049316	0.013916	0.036011	0	0.0213394	0.0108757	0.9869022	0	0.02341628	0.00688720	0.99871516	0	84	506	-655532874	-655532874	147
4.581163	-0.054138	0.022583	0.028015	0	0.0218163	0.0112152	0.9869118	0	0.02365875	0.00727606	0.99821901	0	100	506	-2136315754	-2136315754	147
4.581182	-0.048523	0.022095	0.026001	0	0.0212765	0.0111446	0.9873199	0	0.02398181	0.00778794	0.99783921	0	116	507	2125198209	2125198209	147
4.581234	-0.038635	0.019653	0.032349	0	0.0202217	0.0104179	0.9876976	0	0.02401137	0.00790644	0.99822521	0	132	506	-1025513805	-1025513805	147
4.605176	-0.034912	0.020203	0.040833	0	0.0191097	0.0095406	0.9878731	0	0.02323294	0.00727320	0.99920487	0	148	506	61204768	61204768	147
4.605202	-0.036133	0.023071	0.041931	0	0.0179443	0.0091171	0.9881859	0	0.02190447	0.00628424	0.99996519	0	164	506	1453350008	1453350008	147
4.605247	-0.041565	0.027283	0.041809	0	0.0167942	0.0090637	0.9886951	0	0.02045941	0.00568271	1.00051808	0	180	506	-1130548566	-1130548566	147
4.629102	-0.056458	0.024414	0.050903	0	0.0160351	0.0092201	0.9889812	0	0.01940250	0.00582576	1.00118184	0	196	506	505002984	505002984	147
4.629128	-0.073669	0.014526	0.062439	0	0.0161858	0.0095997	0.9889240	0	0.01899409	0.00620365	1.00147724	0	212	506	1718719337	1718719337	147
4.629141	-0.079163	0.010193	0.058472	0	0.0172081	0.0100193	0.9885883	0	0.01894784	0.00624776	1.00120187	0	228	506	-2051469936	-2051469936	147
4.653088	-0.076294	0.009094	0.037354	0	0.0185871	0.0102024	0.9878845	0	0.01935935	0.00618958	1.00088859	0	244	506	-1190461531	-1190461531	147
4.653118	-0.074768	0.001343	0.019653	0	0.0200920	0.0104027	0.9872284	0	0.02067423	0.00628877	1.00078321	0	4	507	-1670280261	-1670280261	147
4.653136	-0.074890	-0.008850	0.016235	0	0.0216084	0.0109863	0.9872379	0	0.02258468	0.00623012	1.00077844	0	20	507	-209541939	-209541939	147
4.677061	-0.079346	-0.011475	0.021729	0	0.0228329	0.0116062	0.9877644	0	0.02411842	0.00598764	1.00072837	0	36	507	1085901849	1085901849	147
4.677121	-0.081421	-0.008179	0.031372	0	0.0232944	0.0116711	0.9882069	0	0.02482176	0.00624919	1.00038147	0	52	507	-570776545	-570776545	147
4.677133	-0.067993	0.000671	0.034973	0	0.0226135	0.0110245	0.9882641	0	0.02468514	0.00687957	0.99969840	0	68	506	-615054401	-615054401	147
4.700976	-0.053162	0.016052	0.028748	0	0.0210476	0.0102253	0.9881001	0	0.02362490	0.00660324	0.99909687	0	84	506	1004278077	1004278077	147
4.701035	-0.056580	0.025391	0.030396	0	0.0193043	0.0097828	0.9879379	0	0.02194762	0.00547171	0.99930024	0	100	506	-119952242	-119952242	147
4.701048	-0.071472	0.028625	0.048950	0	0.0179806	0.0095558	0.9877739	0	0.02027106	0.00483036	1.00045276	0	116	506	-70717585	-70717585	147
4.724975	-0.079468	0.033752	0.064636	0	0.0170898	0.0093689	0.9876995	0	0.01914978	0.00512266	1.00159216	0	132	506	478115974	478115974	147
4.725003	-0.075989	0.034485	0.065430	0	0.0165691	0.0092201	0.9878330	0	0.01871753	0.00570416	1.00196314	0	148	506	1579654517	1579654517	147
4.725057	-0.075073	0.022949	0.060486	0	0.0168667	0.0092487	0.9878483	0	0.01882434	0.00582814	1.00193977	0	164	506	269890881	269890881	147
4.748963	-0.082581	0.001831	0.055359	0	0.0179710	0.0095634	0.9873676	0	0.01947498	0.00570893	1.00197744	0	180	507	-2020879843	-2020879843	147
4.748991	-0.085266	-0.008911	0.047729	0	0.0192852	0.0099907	0.9867783	0	0.02030563	0.00605845	1.00176811	0	196	507	-2052060212	-2052060212	147
4.749009	-0.076965	-0.007324	0.031921	0	0.0203915	0.0104237	0.9866104	0	0.02096963	0.00671101	1.00110102	0	212	507	-1274085275	-1274085275	147
4.772933	-0.070496	-0.013184	0.013428	0	0.0211639	0.0109158	0.9866104	0	0.02165747	0.00693727	1.00058722	0	228	505	-1709176114	-1709176114	147
4.772961	-0.071411	-0.017883	0.004272	0	0.0215721	0.0113449	0.9865856	0	0.02258182	0.00686193	1.00059748	0	244	506	1503723	1503723	147
4.772973	-0.064087	-0.016357	0.001404	0	0.0212860	0.0113583	0.9866962	0	0.02377462	0.00725150	1.00082898	0	4	506	-972768915	-972768915	147
4.796890	-0.046143	-0.018921	-0.000793	0	0.0201874	0.0108490	0.9868240	0	0.02473187	0.00792813	1.00120401	0	20	506	611204843	611204843	147
4.796915	-0.034973	-0.016785	-0.001587	0	0.0187988	0.0100899	0.9869823	0	0.02456474	0.00801253	1.00160193	0	36	506	-1316110198	-1316110198	147
4.796927	-0.037537	-0.007690	0.000366	0	0.0176239	0.0095940	0.9872627	0	0.02310133	0.00732303	1.00162745	0	52	506	-1032925438	-1032925438	147
4.820847	-0.051147	0.002197	0.011292	0	0.0170994	0.0096684	0.9873581	0	0.02119184	0.00640798	1.00121236	0	68	506	-1267008309	-1267008309	147
4.820911	-0.064331	0.011780	0.034912	0	0.0172119	0.0100727	0.9871788	0	0.01994443	0.00576687	1.00053406	0	84	506	2032309457	2032309457	147
4.820924	-0.064270	0.017822	0.059082	0	0.0175953	0.0105247	0.9871769	0	0.01983261	0.00568509	1.00009990	0	100	507	903309333	903309333	147
4.844845	-0.054443	0.020264	0.066162	0	0.0184536	0.0107822	0.9875336	0	0.02052379	0.00609255	1.00052714	0	116	506	1708721572	1708721572	147
4.844868	-0.042297	0.021240	0.057007	0	0.0199146	0.0107555	0.9881840	0	0.02155399	0.00651956	1.00128484	0	132	507	-1975004809	-1975004809	147
4.844921	-0.031860	0.022278	0.048767	0	0.0214214	0.0108681	0.9886799	0	0.02264643	0.00677323	1.00131679	0	148	506	-1351270612	-1351270612	147
4.868843	-0.029968	0.021973	0.047119	0	0.0221272	0.0115204	0.9882183	0	0.02351213	0.00690341	1.00081992	0	164	506	379009966	379009966	147
4.868870	-0.042908	0.018921	0.044067	0	0.0218258	0.0123119	0.9870644	0	0.02403522	0.00686526	1.00033927	0	180	506	-1255211335	-1255211335	147
4.868917	-0.058838	0.014038	0.032898	0	0.0212002	0.0124264	0.9863110	0	0.02427173	0.00678110	0.99973941	0	196	506	-902817790	-902817790	147
4.892791	-0.061157	0.007874	0.015381	0	0.0203323	0.0117779	0.9865589	0	0.02412820	0.00684857	0.99897003	0	212	507	1024146648	1024146648	147
4.892813	-0.061279	0.001587	0.005859	0	0.0189266	0.0107822	0.9874573	0	0.02347326	0.00701571	0.99846363	0	228	506	698465059	698465059	147
4.892826	-0.065735	-0.007874	0.016663	0	0.0174084	0.0096931	0.9880447	0	0.02223063	0.00694418	0.99886560	0	244	506	-588595491	-588595491	147
4.916776	-0.064331	-0.017639	0.035645	0	0.0162754	0.0088024	0.9879456	0	0.02069306	0.00642633	1.00003743	0	4	507	1171728486	1171728486	147
4.916799	-0.063721	-0.017639	0.039246	0	0.0157852	0.0084972	0.9875813	0	0.01942825	0.00555372	1.00094080	0	20	507	2047551618	2047551618	147
4.916811	-0.066589	-0.009277	0.030151	0	0.0160732	0.0089016	0.9873238	0	0.01855493	0.00467253	1.00113916	0	36	507	1588374702	1588374702	147
5.005678	-0.067749	-0.004517	0.029114	0	0.0170479	0.0096779	0.9871235	0	0.01800370	0.00434875	1.00120664	0	52	506	1837341750	1837341750	147
5.005756	-0.071777	-0.007751	0.035889	0	0.0184402	0.0103817	0.9869442	0	0.01802659	0.00463295	1.00140405	0	68	506	970353101	970353101	147
5.005769	-0.075378	-0.013611	0.035950	0	0.0197544	0.0107250	0.9871006	0	0.01901603	0.00499034	1.00128841	0	84	506	-1531715593	-1531715593	147
5.005782	-0.068970	-0.018982	0.029236	0	0.0209064	0.0107861	0.9875832	0	0.02088237	0.00541544	1.00082135	0	100	506	-1199248099	-1199248099	147
5.005813	-0.057007	-0.016418	0.026245	0	0.0218449	0.0110950	0.9879131	0	0.02272129	0.00629783	1.00036001	0	116	506	410901349	410901349	147
5.005825	-0.049561	-0.001221	0.026062	0	0.0218220	0.0113964	0.9877682	0	0.02391839	0.00720286	0.99993324	0	132	506	-56961166	-56961166	147
5.005837	-0.050720	0.010986	0.018677	0	0.0209732	0.0108757	0.9870701	0	0.02455020	0.00736594	0.99962640	0	148	507	-1654030763	-1654030763	147
5.005849	-0.050476	0.012207	0.010010	0	0.0201054	0.0099621	0.9861889	0	0.02430296	0.00688744	0.99955392	0	164	507	-363899168	-363899168	147
5.005882	-0.039612	0.016479	0.017029	0	0.0191135	0.0095367	0.9859600	0	0.02308416	0.00619698	0.99954081	0	180	507	1407546385	1407546385	147
5.005894	-0.036072	0.030945	0.038757	0	0.0178986	0.0094662	0.9865532	0	0.02183032	0.00540638	0.99962974	0	196	507	419484612	419484612	147
5.005906	-0.052185	0.039368	0.062683	0	0.0169563	0.0093307	0.9870529	0	0.02102876	0.00479221	1.00013256	0	212	506	395742905	395742905	147
5.045574	-0.069336	0.031006	0.080139	0	0.0166626	0.0094566	0.9871445	0	0.02021027	0.00489974	1.00104666	0	228	506	-673952073	-673952073	147
5.045634	-0.071655	0.015442	0.085938	0	0.0169888	0.0102177	0.9873543	0	0.01918316	0.00572109	1.00195289	0	244	506	509536182	509536182	147
5.045647	-0.065430	0.001221	0.082825	0	0.0177975	0.0110741	0.9877071	0	0.01850486	0.00680923	1.00247169	0	4	506	-2030683791	-2030683791	147
5.045659	-0.062805	0.000732	0.073669	0	0.0187225	0.0114746	0.9879074	0	0.01897573	0.00807428	1.00241113	0	20	506	-917439430	-917439430	147
5.045699	-0.063660	0.024963	0.054810	0	0.0192699	0.0116787	0.9877090	0	0.02058434	0.00904894	1.00176287	0	36	506	-1673380030	-1673380030	147
5.069518	-0.059082	0.052917	0.030640	0	0.0197563	0.0119305	0.9872074	0	0.02215934	0.00892544	1.00086021	0	52	506	-938733051	-938733051	147
5.069540	-0.046387	0.059204	0.010864	0	0.0206280	0.0119133	0.9868469	0	0.02298570	0.00802207	1.00005841	0	68	507	-1127357978	-1127357978	147
5.069553	-0.034912	0.050720	0.000854	0	0.0211525	0.0114765	0.9868355	0	0.02345824	0.00720763	0.99965715	0	84	507	785160762	785160762	147
5.093516	-0.035522	0.036194	0.000549	0	0.0207176	0.0108128	0.9872761	0	0.02367115	0.00659704	0.99985909	0	100	507	1691100853	1691100853	147
5.093536	-0.042969	0.017212	0.001648	0	0.0199890	0.0099163	0.9877987	0	0.02331066	0.00618291	1.00027299	0	116	507	1572114135	1572114135	147
5.093549	-0.049133	0.007141	0.000061	0	0.0194588	0.0088844	0.9878178	0	0.02240324	0.00633383	1.00030208	0	132	506	-1892518994	-1892518994	147
5.117456	-0.060242	0.010559	0.004578	0	0.0185490	0.0082741	0.9877148	0	0.02123690	0.00672054	0.99998283	0	148	506	-1004479388	-1004479388	147
5.117515	-0.072510	0.009766	0.019897	0	0.0171146	0.0084133	0.9882278	0	0.02030373	0.00632095	0.99977636	0	164	506	606257867	606257867	147
5.117528	-0.076111	-0.000732	0.036133	0	0.0162487	0.0087738	0.9892025	0	0.02004027	0.00528002	0.99999022	0	180	506	-364249048	-364249048	147
5.141445	-0.078369	-0.003845	0.045898	0	0.0166588	0.0090084	0.9896393	0	0.02028799	0.00477576	1.00048327	0	196	506	228255485	228255485	147
5.141501	-0.083130	0.004089	0.049866	0	0.0178242	0.0097198	0.9888306	0	0.02066588	0.00499105	1.00084734	0	212	506	-868008852	-868008852	147
5.141516	-0.085388	0.013855	0.049866	0	0.0192261	0.0108318	0.9873180	0	0.02126551	0.00532508	1.00086451	0	228	507	-1218932890	-1218932890	147
5.165417	-0.086792	0.021667	0.049622	0	0.0206985	0.0115032	0.9863968	0	0.02221394	0.00575924	1.00047636	0	244	507	-1711802107	-1711802107	147
5.165449	-0.081848	0.022583	0.042847	0	0.0217743	0.0119514	0.9863358	0	0.02316523	0.00650668	0.99981022	0	4	507	-1178093276	-1178093276	147
5.165526	-0.060364	0.018433	0.028809	0	0.0220203	0.0124359	0.9863586	0	0.02375388	0.00714517	0.99918222	0	20	507	674776090	674776090	147
5.189371	-0.036438	0.013489	0.027466	0	0.0214844	0.0122566	0.9865932	0	0.02381778	0.00709581	0.99906063	0	36	506	1384724968	1384724968	147
5.189405	-0.032593	0.008423	0.041626	0	0.0204697	0.0113125	0.9873524	0	0.02326465	0.00649786	0.99975109	0	52	506	314013707	314013707	147
5.189420	-0.047180	0.005615	0.046448	0	0.0191422	0.0102291	0.9878044	0	0.02225232	0.00596929	1.00036573	0	68	506	1828418739	1828418739	147
5.213363	-0.066040	0.001648	0.029053	0	0.0174770	0.0094776	0.9874077	0	0.02108932	0.00559473	1.00011301	0	84	506	1897636580	1897636580	147
5.213383	-0.076172	-0.000122	0.012939	0	0.0160255	0.0092468	0.9866390	0	0.01984310	0.00496268	0.99976182	0	100	506	-1239636196	-1239636196	147
5.213395	-0.074707	0.007690	0.017151	0	0.0158615	0.0093155	0.9864483	0	0.01860523	0.00439429	0.99995065	0	116	506	-1284803483	-1284803483	147
5.237314	-0.068665	0.013428	0.022644	0	0.0170288	0.0095367	0.9874058	0	0.01798034	0.00441670	1.00053692	0	132	506	1752974106	1752974106	147
5.237336	-0.057312	0.008545	0.017273	0	0.0185947	0.0101357	0.9886398	0	0.01850724	0.00488353	1.00100183	0	148	506	770787308	770787308	147
5.237348	-0.045776	0.002747	0.018921	0	0.0198879	0.0109501	0.9889832	0	0.01997375	0.00578165	1.00070643	0	164	506	-1044634787	-1044634787	147
5.261288	-0.044067	0.004089	0.032715	0	0.0207157	0.0114803	0.9887924	0	0.02192211	0.00685191	0.99998951	0	180	507	-18248377	-18248377	147
5.261343	-0.046143	0.011658	0.040405	0	0.0213280	0.0117073	0.9884357	0	0.02366996	0.00726295	0.99964404	0	196	506	1166119040	1166119040	147
5.261355	-0.049194	0.018372	0.037048	0	0.0218105	0.0117073	0.9875755	0	0.02424502	0.00700378	0.99968815	0	212	506	-1403221371	-1403221371	147
5.285252	-0.057495	0.017334	0.028748	0	0.0216751	0.0111847	0.9868317	0	0.02360368	0.00675797	0.99967694	0	228	506	1821451449	1821451449	147
5.285272	-0.064819	0.014404	0.019775	0	0.0207367	0.0104370	0.9867611	0	0.02275324	0.00640512	0.99940491	0	244	506	1926618479	1926618479	147
5.285322	-0.063354	0.020264	0.015808	0	0.0192814	0.0101013	0.9867554	0	0.02214694	0.00545716	0.99910522	0	4	506	-704527049	-704527049	147
5.309215	-0.051758	0.022949	0.012268	0	0.0177326	0.0098629	0.9866543	0	0.02139187	0.00448370	0.99922347	0	20	506	1070001774	1070001774	147
5.309237	-0.041748	0.008667	0.007996	0	0.0167828	0.0094242	0.9868927	0	0.02035856	0.00430369	0.99974918	0	36	507	1659622931	1659622931	147
5.309280	-0.050293	-0.001343	0.016113	0	0.0166187	0.0092754	0.9873428	0	0.01933885	0.00465226	1.00013232	0	52	507	-719976297	-719976297	147
5.333189	-0.069397	0.006775	0.037354	0	0.0167217	0.0093880	0.9876633	0	0.01850271	0.00493169	1.00015497	0	68	507	-1322563515	-1322563515	147
5.333221	-0.079163	0.013794	0.052856	0	0.0172310	0.0094299	0.9875069	0	0.01795650	0.00517488	0.99980235	0	84	507	-503561151	-503561151	147
5.333239	-0.079163	0.010193	0.052185	0	0.0185661	0.0096989	0.9867573	0	0.01799893	0.00562191	0.99909496	0	100	506	-1572924847	-1572924847	147
5.357158	-0.078308	0.009888	0.043213	0	0.0199680	0.0103664	0.9862499	0	0.01884031	0.00629163	0.99859309	0	116	506	-1857975131	-1857975131	147
5.357200	-0.073914	0.009888	0.033997	0	0.0207767	0.0111198	0.9864731	0	0.02034473	0.00720310	0.99858356	0	132	506	-1246951588	-1246951588	147
5.357216	-0.061707	-0.006836	0.025269	0	0.0214520	0.0115929	0.9867535	0	0.02204323	0.00803471	0.99871755	0	148	506	-511029146	-511029146	147
5.381182	-0.051086	-0.023560	0.014832	0	0.0219193	0.0116405	0.9868069	0	0.02325296	0.00825310	0.99894643	0	164	506	-2077476340	-2077476340	147
5.381202	-0.047302	-0.021790	0.002808	0	0.0215111	0.0112591	0.9869251	0	0.02387309	0.00789905	0.99948549	0	180	506	515058017	515058017	147
5.381214	-0.044128	-0.010132	-0.004089	0	0.0202789	0.0105419	0.9869270	0	0.02408338	0.00717163	1.00004697	0	196	506	1426283396	1426283396	147
5.405118	-0.043640	0.005493	0.002991	0	0.0189228	0.0099297	0.9868221	0	0.02350640	0.00622177	1.00035906	0	212	506	-1439727296	-1439727296	147
5.405195	-0.054443	0.014832	0.015686	0	0.0180340	0.0097218	0.9869213	0	0.02226543	0.00540233	1.00066590	0	228	507	1034337071	1034337071	147
5.405213	-0.066284	0.011597	0.027771	0	0.0173111	0.0096474	0.9870110	0	0.02104902	0.00472617	1.00076842	0	244	506	-2010630434	-2010630434	147
5.429053	-0.067322	0.011597	0.052979	0	0.0164986	0.0095692	0.9869061	0	0.01995492	0.00404644	1.00052333	0	4	507	2060412363	2060412363	147
5.429077	-0.069336	0.021729	0.081482	0	0.0164680	0.0095959	0.9867268	0	0.01896429	0.00373292	1.00045443	0	20	506	1696347751	1696347751	147
5.429123	-0.077332	0.029114	0.087524	0	0.0175934	0.0097332	0.9867420	0	0.01869678	0.00409555	1.00059772	0	36	506	1998093665	1998093665	147
5.453049	-0.082581	0.030273	0.073425	0	0.0190411	0.0100975	0.9872742	0	0.01962113	0.00490928	1.00066638	0	52	506	-1237593650	-1237593650	147
5.453074	-0.083069	0.027771	0.060303	0	0.0202332	0.0108585	0.9878216	0	0.02118230	0.00577331	1.00070763	0	68	506	1217987509	1217987509	147
5.453134	-0.079468	0.019714	0.057129	0	0.0211716	0.0117397	0.9876995	0	0.02252960	0.00647068	1.00083256	0	84	506	607888312	607888312	147
5.477004	-0.070679	0.012207	0.051331	0	0.0215702	0.0119591	0.9871635	0	0.02335954	0.00709414	1.00080633	0	100	506	979854755	979854755	147
5.477025	-0.057861	0.003357	0.037292	0	0.0211678	0.0112686	0.9867592	0	0.02370000	0.00767493	1.00015521	0	116	506	-1115372624	-1115372624	147
5.477037	-0.042603	-0.006836	0.035400	0	0.0201912	0.0104904	0.9867916	0	0.02351904	0.00798106	0.99919581	0	132	506	-1014337163	-1014337163	147
5.500936	-0.031921	-0.008118	0.050293	0	0.0189495	0.0101433	0.9871902	0	0.02274323	0.00773239	0.99879503	0	148	507	1542250005	1542250005	147
5.500963	-0.030334	-0.007324	0.054504	0	0.0179100	0.0098286	0.9875450	0	0.02155018	0.00707817	0.99906373	0	164	506	1316548077	1316548077	147
5.500975	-0.030945	-0.008972	0.044495	0	0.0172520	0.0094738	0.9877758	0	0.02029252	0.00673914	0.99955559	0	180	506	-1315048991	-1315048991	147
5.524966	-0.032776	-0.002319	0.043762	0	0.0168686	0.0094795	0.9879341	0	0.01937795	0.00667858	1.00028396	0	196	506	-199670576	-199670576	147
5.525088	-0.042175	0.011108	0.051575	0	0.0171719	0.0098286	0.9877357	0	0.01901031	0.00612593	1.00154567	0	212	506	-1126787885	-1126787885	147
5.525107	-0.051575	0.015259	0.049927	0	0.0182133	0.0101700	0.9871998	0	0.01902008	0.00529122	1.00255656	0	228	506	-650551261	-650551261	147
5.548903	-0.048523	0.010132	0.036011	0	0.0193539	0.0104694	0.9868793	0	0.01944304	0.00480747	1.00202608	0	244	506	1949340696	1949340696	147
5.548991	-0.042358	0.006470	0.023865	0	0.0202942	0.0109653	0.9868889	0	0.02062917	0.00496745	1.00048447	0	4	506	2113822849	2113822849	147
5.549010	-0.049255	0.005859	0.024536	0	0.0211277	0.0115719	0.9869576	0	0.02247524	0.00600863	0.99962759	0	20	506	1468832704	1468832704	147
5.572898	-0.059937	0.017090	0.025208	0	0.0219975	0.0119820	0.9872818	0	0.02410746	0.00725222	0.99984980	0	36	507	2048693906	2048693906	147
5.572937	-0.056702	0.036316	0.010864	0	0.0228024	0.0119724	0.9877625	0	0.02481914	0.00750542	1.00027013	0	52	507	-1855958413	-1855958413	147
5.573018	-0.050171	0.038818	0.000183	0	0.0228939	0.0113544	0.9876022	0	0.02453470	0.00698423	1.00053716	0	68	507	1649877521	1649877521	147
5.596813	-0.053284	0.024719	0.016724	0	0.0216827	0.0102024	0.9867229	0	0.02328658	0.00671744	1.00103426	0	84	506	-592248964	-592248964	147
5.596842	-0.056763	0.008484	0.043884	0	0.0198078	0.0091896	0.9861488	0	0.02168536	0.00669980	1.00136280	0	100	506	713348969	713348969	147
5.596859	-0.058472	-0.007202	0.051575	0	0.0183773	0.0088596	0.9864998	0	0.02065849	0.00644684	1.00113702	0	116	506	1532431532	1532431532	147
5.620821	-0.059631	-0.013428	0.044678	0	0.0174618	0.0088825	0.9872169	0	0.02021456	0.00613499	1.00126839	0	132	506	-2128108216	-2128108216	147
5.620858	-0.057190	-0.007812	0.043823	0	0.0168438	0.0089626	0.9875145	0	0.01982117	0.00617909	1.00211382	0	148	506	-1632064635	-1632064635	147
5.620871	-0.057434	-0.006592	0.048706	0	0.0168877	0.0092239	0.9874306	0	0.01936650	0.00625253	1.00289655	0	164	506	1984513576	1984513576	147
5.644792	-0.065491	-0.017090	0.045837	0	0.0177231	0.0096684	0.9874649	0	0.01923203	0.00577998	1.00323224	0	180	507	1800692992	1800692992	147
5.644813	-0.073975	-0.025757	0.034607	0	0.0189133	0.0101109	0.9876461	0	0.01961470	0.00528765	1.00297165	0	196	507	-1094758306	-1094758306	147
5.644825	-0.073181	-0.018677	0.030273	0	0.0201416	0.0105247	0.9875660	0	0.02044392	0.00564265	1.00196290	0	212	506	-1824957736	-1824957736	147
5.668797	-0.066101	-0.003479	0.037720	0	0.0212936	0.0112267	0.9868279	0	0.02179599	0.00674176	1.00085783	0	228	506	-287930439	-287930439	147
5.668858	-0.061768	0.004517	0.039978	0	0.0221500	0.0120621	0.9858646	0	0.02337337	0.00760126	1.00036621	0	244	506	2111783753	2111783753	147
5.668871	-0.056335	0.001343	0.026184	0	0.0225620	0.0120029	0.9856377	0	0.02460265	0.00741911	1.00031352	0	4	506	275362306	275362306	147
5.692754	-0.047852	-0.004944	0.018860	0	0.0221481	0.0111198	0.9861069	0	0.02517223	0.00662756	1.00047350	0	20	506	-1581462419	-1581462419	147
5.692782	-0.048523	-0.006409	0.036011	0	0.0205345	0.0105591	0.9866734	0	0.02461386	0.00627518	1.00091577	0	36	506	-1748918257	-1748918257	147
5.692845	-0.058350	0.002869	0.053406	0	0.0185032	0.0101376	0.9872456	0	0.02288127	0.00651431	1.00129485	0	52	506	855929482	855929482	147
5.756695	-0.068542	0.020264	0.055603	0	0.0172291	0.0094166	0.9880524	0	0.02103329	0.00653744	1.00119638	0	68	506	-940339295	-940339295	147
5.756742	-0.080627	0.026306	0.059082	0	0.0167046	0.0090027	0.9888210	0	0.01982522	0.00597358	1.00087357	0	84	507	-1497548876	-1497548876	147
5.756832	-0.088196	0.017029	0.066589	0	0.0167961	0.0091267	0.9887886	0	0.01902485	0.00537801	1.00058460	0	100	507	1095329230	1095329230	147
5.756851	-0.083679	0.009155	0.064148	0	0.0178223	0.0093670	0.9881363	0	0.01869392	0.00535965	1.00055218	0	116	507	-1666770305	-1666770305	147
5.756868	-0.075317	0.003845	0.053833	0	0.0191689	0.0094967	0.9874878	0	0.01940036	0.00593925	1.00111723	0	132	507	-760933506	-760933506	147
5.756884	-0.071350	-0.000732	0.048340	0	0.0202656	0.0098190	0.9868279	0	0.02093577	0.00648594	1.00176501	0	148	506	-732627435	-732627435	147
5.756962	-0.067993	0.002075	0.040466	0	0.0212669	0.0105686	0.9862194	0	0.02227545	0.00648046	1.00192761	0	164	506	1302738021	1302738021	147
5.756979	-0.060913	0.002380	0.028198	0	0.0218620	0.0112190	0.9858665	0	0.02296185	0.00629425	1.00172830	0	180	506	301073457	301073457	147
5.805633	-0.058289	-0.009277	0.031250	0	0.0216599	0.0111923	0.9858513	0	0.02333999	0.00632954	1.00134301	0	196	506	1888100249	1888100249	147
5.805666	-0.061768	-0.018311	0.039978	0	0.0208035	0.0105362	0.9863853	0	0.02364755	0.00627732	1.00095582	0	212	506	1185821625	1185821625	147
5.805779	-0.054688	-0.012207	0.034485	0	0.0197563	0.0096378	0.9872570	0	0.02361655	0.00597095	1.00059009	0	228	506	1837511478	1837511478	147
5.805798	-0.044983	0.003845	0.033875	0	0.0188046	0.0089245	0.9878807	0	0.02269053	0.00568724	1.00021720	0	244	506	-1453424145	-1453424145	147
5.805816	-0.052185	0.014465	0.046936	0	0.0177975	0.0085888	0.9880238	0	0.02095461	0.00551486	1.00000954	0	4	506	-375426575	-375426575	147
5.805859	-0.061829	0.006226	0.053101	0	0.0167580	0.0085220	0.9877396	0	0.01954532	0.00529075	1.00018883	0	20	507	339868957	339868957	147
5.869574	-0.065491	-0.009216	0.050720	0	0.0163307	0.0087376	0.9872799	0	0.01910591	0.00493598	1.00093651	0	36	506	668345993	668345993	147
5.869595	-0.068665	-0.011169	0.055054	0	0.0169868	0.0093040	0.9869995	0	0.01932263	0.00476313	1.00186920	0	52	507	-895157562	-895157562	147
5.869608	-0.069336	-0.002991	0.065674	0	0.0182629	0.0099850	0.9870472	0	0.02006531	0.00499988	1.00236797	0	68	506	1248400464	1248400464	147
5.869658	-0.067993	0.006653	0.070801	0	0.0194817	0.0104694	0.9874249	0	0.02103734	0.00530362	1.00244331	0	84	506	1628079612	1628079612	147
5.869670	-0.060974	0.013855	0.069214	0	0.0205555	0.0108814	0.9878197	0	0.02180934	0.00560236	1.00227785	0	100	506	-1347624098	-1347624098	147
5.869682	-0.047424	0.012024	0.064514	0	0.0213566	0.0114250	0.9876404	0	0.02250838	0.00618386	1.00198436	0	116	506	-470278702	-470278702	147
5.869693	-0.036865	0.002625	0.049500	0	0.0215778	0.0119457	0.9870090	0	0.02331376	0.00701857	1.00156736	0	132	506	-401237837	-401237837	147
5.869726	-0.033264	-0.000793	0.026062	0	0.0213795	0.0122280	0.9866943	0	0.02407646	0.00766134	1.00072289	0	148	507	121542573	121542573	147
5.893550	-0.030945	0.009277	0.018127	0	0.0208683	0.0119057	0.9870796	0	0.02427816	0.00773406	0.99960327	0	164	507	1558828376	1558828376	147
5.893572	-0.032837	0.018494	0.033508	0	0.0198383	0.0108395	0.9878998	0	0.02359104	0.00723958	0.99909353	0	180	507	658506363	658506363	147
5.893616	-0.045837	0.018311	0.049561	0	0.0183125	0.0096436	0.9883919	0	0.02249360	0.00614405	0.99974108	0	196	506	-514062462	-514062462	147
5.917532	-0.058350	0.018738	0.056458	0	0.0169067	0.0089149	0.9881992	0	0.02139306	0.00483346	1.00105023	0	212	507	1129449846	1129449846	147
5.917566	-0.062195	0.012878	0.061768	0	0.0163364	0.0087414	0.9878139	0	0.02018118	0.00406599	1.00202513	0	228	506	273670628	273670628	147
5.917578	-0.062622	-0.007812	0.064880	0	0.0164757	0.0088825	0.9878788	0	0.01924729	0.00392318	1.00209022	0	244	506	742550301	742550301	147
5.941481	-0.063416	-0.016357	0.065918	0	0.0171242	0.0091515	0.9885006	0	0.01932430	0.00420547	1.00159883	0	4	506	251005743	251005743	147
5.941502	-0.072021	0.002563	0.067078	0	0.0183659	0.0097828	0.9890175	0	0.02027845	0.00500798	1.00126219	0	20	506	-419346780	-419346780	147
5.941515	-0.083435	0.018433	0.062195	0	0.0198402	0.0106049	0.9888229	0	0.02140331	0.00624371	1.00130105	0	36	506	716203487	716203487	147
5.965458	-0.081543	0.016113	0.051636	0	0.0211792	0.0109100	0.9879799	0	0.02231002	0.00717640	1.00161815	0	52	507	-622308044	-622308044	147
5.965514	-0.068787	0.016113	0.039001	0	0.0220776	0.0107365	0.9869137	0	0.02287316	0.00722194	1.00195503	0	68	506	511345760	511345760	147
5.965527	-0.055481	0.020874	0.017090	0	0.0220566	0.0107994	0.9862213	0	0.02304673	0.00702572	1.00201106	0	84	507	481377907	481377907	147
5.989611	-0.047546	0.013977	-0.005798	0	0.0212860	0.0111275	0.9862232	0	0.02289605	0.00723481	1.00167203	0	100	507	1560308269	1560308269	147
5.989773	-0.051880	0.005432	0.001282	0	0.0203934	0.0110092	0.9866219	0	0.02242208	0.00735426	1.00102520	0	116	507	-448614530	-448614530	147
5.989787	-0.062500	0.011169	0.039062	0	0.0194778	0.0103455	0.9870243	0	0.02167559	0.00679445	1.00041652	0	132	506	894506500	894506500	147
6.013404	-0.058289	0.019226	0.071594	0	0.0184364	0.0097256	0.9873180	0	0.02070427	0.00573564	1.00011420	0	148	506	-1157059930	-1157059930	147
6.013434	-0.038452	0.021912	0.083862	0	0.0175438	0.0092468	0.9875565	0	0.01954627	0.00471592	1.00010443	0	164	506	434103790	434103790	147
6.013504	-0.019470	0.025696	0.084473	0	0.0170612	0.0088997	0.9877453	0	0.01887536	0.00411963	1.00015640	0	180	506	471999067	471999067	147
6.037372	-0.006775	0.030823	0.074951	0	0.0168800	0.0091763	0.9877586	0	0.01907253	0.00431204	1.00001884	0	196	507	-1671691264	-1671691264	147
6.037424	-0.010681	0.035583	0.060852	0	0.0170574	0.0100842	0.9874191	0	0.01966429	0.00522637	0.99983978	0	212	506	-110343798	-110343798	147
6.037437	-0.032837	0.038025	0.052856	0	0.0180473	0.0109005	0.9870205	0	0.02067518	0.00618052	0.99995899	0	228	506	1041571462	1041571462	147
6.061352	-0.047302	0.037659	0.049866	0	0.0195980	0.0111752	0.9870853	0	0.02202439	0.00681758	1.00031137	0	244	507	-191880693	-191880693	147
6.061376	-0.048035	0.038635	0.045410	0	0.0208473	0.0112724	0.9872570	0	0.02284193	0.00728703	1.00063396	0	4	506	1815810184	1815810184	147
6.061389	-0.050781	0.031860	0.035034	0	0.0215454	0.0115433	0.9869671	0	0.02299047	0.00768256	1.00086451	0	20	507	-1265845756	-1265845756	147
6.085342	-0.057373	0.009338	0.025024	0	0.0218849	0.0116024	0.9864178	0	0.02314425	0.00793481	1.00084376	0	36	506	-495063743	-495063743	147
6.085362	-0.062073	-0.011475	0.023376	0	0.0217495	0.0110512	0.9862213	0	0.02332783	0.00798059	1.00033998	0	52	506	78794756	78794756	147
6.085374	-0.063049	-0.016602	0.019348	0	0.0207596	0.0099583	0.9867458	0	0.02292967	0.00773382	0.99977779	0	68	506	1218208708	1218208708	147
6.109304	-0.065552	-0.010132	0.012512	0	0.0191231	0.0088921	0.9874153	0	0.02182102	0.00700784	0.99999475	0	84	506	1292590442	1292590442	147
6.109363	-0.073181	0.000793	0.017639	0	0.0175610	0.0085926	0.9875450	0	0.02075052	0.00609183	1.00078273	0	100	506	736788475	736788475	147
6.109376	-0.080200	0.011047	0.030640	0	0.0166759	0.0090923	0.9873981	0	0.02042723	0.00587010	1.00122428	0	116	506	-219644789	-219644789	147
6.133274	-0.077942	0.021484	0.037598	0	0.0167561	0.0097408	0.9873047	0	0.02064943	0.00637960	1.00129461	0	132	507	1607973744	1607973744	147
6.133304	-0.063538	0.032471	0.035828	0	0.0176964	0.0101051	0.9871330	0	0.02098989	0.00676060	1.00151777	0	148	506	1819317429	1819317429	147
6.133358	-0.047180	0.036438	0.025818	0	0.0191727	0.0104275	0.9867744	0	0.02140331	0.00686240	1.00172615	0	164	506	-803004831	-803004831	147
6.157256	-0.038208	0.027771	0.011475	0	0.0207825	0.0108223	0.9862080	0	0.02193165	0.00700569	1.00144458	0	180	507	248788849	248788849	147
6.157278	-0.038635	0.015198	0.013245	0	0.0219002	0.0111618	0.9856586	0	0.02233672	0.00711894	1.00118732	0	196	507	544595329	544595329	147
6.157326	-0.044922	0.013916	0.029724	0	0.0220146	0.0115013	0.9854298	0	0.02260756	0.00717258	1.00177336	0	212	506	-1968896906	-1968896906	147
6.181255	-0.043518	0.026184	0.031250	0	0.0215149	0.0114326	0.9854927	0	0.02332377	0.00727010	1.00249314	0	228	506	-1069479078	-1069479078	147
6.181275	-0.032166	0.038208	0.021729	0	0.0209770	0.0108547	0.9856892	0	0.02427840	0.00729203	1.00198102	0	244	506	1513234599	1513234599	147
6.181288	-0.026733	0.035095	0.020081	0	0.0200119	0.0105000	0.9860325	0	0.02437592	0.00712729	1.00066519	0	4	506	1275216125	1275216125	147
6.205203	-0.030396	0.020752	0.025574	0	0.0183544	0.0105476	0.9864979	0	0.02319789	0.00684500	1.00018525	0	20	506	-1698352600	-1698352600	147
6.205247	-0.035950	0.010498	0.038574	0	0.0168152	0.0106621	0.9869328	0	0.02150559	0.00668049	1.00078416	0	36	506	-2120689564	-2120689564	147
6.205260	-0.046143	0.008423	0.051697	0	0.0160656	0.0105724	0.9874878	0	0.02024937	0.00666976	1.00147414	0	52	506	-1888941845	-1888941845	147
6.229134	-0.056702	0.010376	0.049683	0	0.0159092	0.0101910	0.9880810	0	0.01951790	0.00636363	1.00175166	0	68	507	893737561	893737561	147
6.229199	-0.059692	0.009338	0.039246	0	0.0164032	0.0100079	0.9883099	0	0.01916337	0.00572729	1.00160742	0	84	506	-1044987735	-1044987735	147
6.229212	-0.061523	0.000854	0.033997	0	0.0175171	0.0104389	0.9881859	0	0.01927376	0.00523925	1.00100899	0	100	506	-643231979	-643231979	147
6.253125	-0.066406	-0.005981	0.029968	0	0.0185089	0.0110569	0.9878082	0	0.01978183	0.00504994	1.00017548	0	116	506	297081990	297081990	147
6.253177	-0.071289	-0.000610	0.025635	0	0.0195580	0.0114136	0.9874630	0	0.02068758	0.00522399	0.99963665	0	132	506	2014615118	2014615118	147
6.253190	-0.072083	0.010986	0.027100	0	0.0209618	0.0118160	0.9873905	0	0.02210236	0.00586820	0.99964905	0	148	506	222899975	222899975	147
6.277123	-0.069092	0.012146	0.030762	0	0.0219631	0.0121841	0.9872379	0	0.02370000	0.00685906	0.99976158	0	164	506	666566606	666566606	147
6.277150	-0.071411	0.002075	0.031494	0	0.0220909	0.0120029	0.9868755	0	0.02461410	0.00776362	0.99925017	0	180	507	-621626990	-621626990	147
6.277215	-0.075989	-0.004211	0.034424	0	0.0212021	0.0114594	0.9865150	0	0.02458525	0.00802231	0.99834085	0	196	506	1899576648	1899576648	147
6.301061	-0.067566	-0.006958	0.041870	0	0.0195637	0.0108509	0.9862995	0	0.02409410	0.00758195	0.99807215	0	212	506	-2054824310	-2054824310	147
6.301089	-0.055054	-0.008057	0.052429	0	0.0179844	0.0101185	0.9865437	0	0.02304125	0.00699782	0.99867034	0	228	507	402734709	402734709	147
6.301106	-0.056091	-0.001709	0.062317	0	0.0166664	0.0093727	0.9873142	0	0.02143526	0.00676036	0.99960709	0	244	507	-206222692	-206222692	147
6.325050	-0.063538	0.004028	0.069214	0	0.0156097	0.0090523	0.9880638	0	0.01993442	0.00666690	1.00052333	0	4	507	1504385134	1504385134	147
6.325078	-0.067139	0.002563	0.075928	0	0.0154381	0.0093594	0.9884624	0	0.01891208	0.00622606	1.00101209	0	20	506	1713459092	1713459092	147
6.325096	-0.066772	-0.001587	0.075745	0	0.0163651	0.0098114	0.9885292	0	0.01868176	0.00552011	1.00087619	0	36	506	-491018812	-491018812	147
6.348983	-0.064270	-0.004578	0.066101	0	0.0177097	0.0103207	0.9882126	0	0.01931143	0.00517178	1.00066185	0	52	506	-370117392	-370117392	147
6.349011	-0.062988	-0.004333	0.055176	0	0.0190697	0.0112495	0.9875584	0	0.02035856	0.00553226	1.00059986	0	68	506	473890234	473890234	147
6.349024	-0.057556	-0.000732	0.046631	0	0.0204182	0.0119476	0.9868336	0	0.02169561	0.00618529	1.00025892	0	84	507	1704424076	1704424076	147
6.373010	-0.042358	0.006226	0.040100	0	0.0215492	0.0117073	0.9864445	0	0.02331591	0.00668907	0.99978018	0	100	506	357316659	357316659	147
6.373134	-0.031067	0.012695	0.030396	0	0.0223598	0.0110779	0.9864388	0	0.02455401	0.00705099	0.99955177	0	116	507	1580971014	1580971014	147
6.373152	-0.035278	0.016052	0.013611	0	0.0225029	0.0105572	0.9866619	0	0.02474785	0.00730395	0.99944782	0	132	507	-1083707326	-1083707326	147
6.396945	-0.047485	0.017151	0.001404	0	0.0214863	0.0101719	0.9870453	0	0.02422237	0.00752378	0.99933743	0	148	507	-219748688	-219748688	147
6.396974	-0.055054	0.014465	0.011047	0	0.0196304	0.0099545	0.9872704	0	0.02340531	0.00774074	0.99939179	0	164	507	1645935921	1645935921	147
6.397042	-0.057007	0.011414	0.031555	0	0.0178165	0.0094776	0.9873066	0	0.02196932	0.00761151	0.99982500	0	180	507	530825248	530825248	147
6.420898	-0.058838	0.010620	0.038330	0	0.0167141	0.0087814	0.9874897	0	0.01999116	0.00699902	1.00043178	0	196	506	1911023218	1911023218	147
6.420946	-0.061279	0.009460	0.036133	0	0.0164948	0.0086422	0.9876652	0	0.01838374	0.00629735	1.00107241	0	212	506	-1401754643	-1401754643	147
6.420998	-0.067078	0.009888	0.037415	0	0.0168343	0.0090466	0.9876804	0	0.01775384	0.00582170	1.00188684	0	228	506	-549828028	-549828028	147
6.444926	-0.072632	0.011719	0.038269	0	0.0174980	0.0096626	0.9880295	0	0.01805902	0.00588703	1.00240612	0	244	506	-238868468	-238868468	147
6.444949	-0.072937	0.013306	0.040222	0	0.0187836	0.0104275	0.9885883	0	0.01917839	0.00657821	1.00210190	0	4	506	-1640221889	-1640221889	147
6.444962	-0.075073	0.014587	0.041382	0	0.0204868	0.0108700	0.9886055	0	0.02085805	0.00728846	1.00118828	0	20	506	597008363	597008363	147
6.468882	-0.079773	0.016968	0.031555	0	0.0217648	0.0109119	0.9880886	0	0.02242732	0.00770068	1.00010061	0	36	506	-1455511823	-1455511823	147
6.468906	-0.079163	0.022827	0.020264	0	0.0223160	0.0110550	0.9874477	0	0.02328491	0.00807953	0.99926615	0	52	507	648484889	648484889	147
6.468918	-0.068726	0.027283	0.017029	0	0.0222130	0.0110931	0.9868450	0	0.02364278	0.00824356	0.99889445	0	68	507	103436574	103436574	147
6.492832	-0.059021	0.022827	0.016357	0	0.0213947	0.0108261	0.9865170	0	0.02407885	0.00761986	0.99888039	0	84	507	1083257686	1083257686	147
6.492908	-0.065369	0.008362	0.016541	0	0.0199604	0.0105972	0.9867458	0	0.02431178	0.00623178	0.99935985	0	100	506	-1581583766	-1581583766	147
6.492925	-0.082397	-0.003662	0.019470	0	0.0183315	0.0101089	0.9873657	0	0.02365565	0.00482273	1.00031877	0	116	506	1174554228	1174554228	147
6.516778	-0.094360	-0.003357	0.027161	0	0.0171223	0.0091972	0.9878025	0	0.02215672	0.00401902	1.00102472	0	132	506	-768450430	-768450430	147
6.516855	-0.093994	-0.000061	0.035706	0	0.0167027	0.0085945	0.9875355	0	0.02042413	0.00374651	1.00117660	0	148	506	-1763690990	-1763690990	147
6.516868	-0.085999	0.000977	0.041565	0	0.0170155	0.0087700	0.9867535	0	0.01910496	0.00387049	1.00127983	0	164	506	1364313158	1364313158	147
6.540791	-0.075439	0.001465	0.042786	0	0.0178280	0.0094910	0.9862862	0	0.01867032	0.00453782	1.00134063	0	180	506	-1444996335	-1444996335	147
6.540811	-0.062805	0.000122	0.031006	0	0.0187759	0.0103588	0.9864960	0	0.01922321	0.00534701	1.00098610	0	196	506	518842123	518842123	147
6.540858	-0.052795	-0.000977	0.010864	0	0.0195522	0.0110722	0.9869537	0	0.02029514	0.00558829	1.00020790	0	212	506	-1876314103	-1876314103	147
6.564724	-0.051025	0.000183	0.003235	0	0.0203629	0.0113983	0.9871731	0	0.02134609	0.00542593	0.99948072	0	228	507	1372618268	1372618268	147
6.564756	-0.053162	0.004944	0.008850	0	0.0215530	0.0113945	0.9870338	0	0.02208638	0.00562429	0.99941802	0	244	506	-471010457	-471010457	147
6.564776	-0.049683	0.015930	0.010620	0	0.0224400	0.0112553	0.9867973	0	0.02256560	0.00625324	0.99964237	0	4	506	1929698289	1929698289	147
6.588695	-0.040649	0.030762	0.012634	0	0.0219574	0.0108509	0.9870586	0	0.02316284	0.00676537	0.99960041	0	20	506	-35865826	-35865826	147
6.588721	-0.032410	0.039795	0.027649	0	0.0205898	0.0101204	0.9878178	0	0.02363491	0.00673842	0.99967146	0	36	506	742974778	742974778	147
6.588733	-0.028564	0.039612	0.046631	0	0.0193748	0.0093136	0.9883518	0	0.02330494	0.00601006	0.99978042	0	52	506	-249659384	-249659384	147
6.637699	-0.030090	0.035645	0.051514	0	0.0182533	0.0088215	0.9886303	0	0.02216196	0.00517559	0.99971628	0	68	506	335454828	335454828	147
6.637753	-0.037720	0.029175	0.043030	0	0.0171299	0.0088196	0.9886551	0	0.02075577	0.00515342	0.99997616	0	84	506	-1562356512	-1562356512	147
6.637766	-0.051025	0.024292	0.041748	0	0.0164089	0.0090904	0.9880219	0	0.01960444	0.00560093	1.00057960	0	100	506	-1984568273	-1984568273	147
6.637779	-0.067566	0.028625	0.051025	0	0.0165272	0.0095062	0.9872799	0	0.01896763	0.00563741	1.00106168	0	116	507	-112808410	-112808410	147
6.637902	-0.082825	0.035400	0.055298	0	0.0175247	0.0100079	0.9871731	0	0.01895881	0.00558925	1.00130415	0	132	507	-1840663312	-1840663312	147
6.637916	-0.092407	0.028564	0.051208	0	0.0187798	0.0106182	0.9873505	0	0.01977825	0.00586700	1.00135279	0	148	507	-735668405	-735668405	147
6.701569	-0.092529	0.009705	0.035828	0	0.0198555	0.0114384	0.9873619	0	0.02127743	0.00595713	1.00129890	0	164	506	-67940509	-67940509	147
6.701596	-0.078918	0.000671	0.012085	0	0.0210514	0.0120220	0.9873810	0	0.02268434	0.00554180	1.00138521	0	180	506	704127119	704127119	147
6.701652	-0.060791	0.008850	0.001526	0	0.0221844	0.0119553	0.9873753	0	0.02353930	0.00510097	1.00142241	0	196	506	332758205	332758205	147
6.701668	-0.054504	0.019226	0.005249	0	0.0223808	0.0116291	0.9870777	0	0.02379704	0.00532484	1.00096798	0	212	506	-1309825507	-1309825507	147
6.701684	-0.061157	0.021423	0.002380	0	0.0215607	0.0114498	0.9865971	0	0.02338219	0.00592184	1.00022960	0	228	506	-658641889	-658641889	147
6.701733	-0.068604	0.017334	-0.004395	0	0.0202141	0.0112114	0.9863091	0	0.02258849	0.00588202	0.99975705	0	244	506	-1344574540	-1344574540	147
6.701749	-0.063477	0.012146	0.002075	0	0.0187054	0.0107155	0.9867401	0	0.02180552	0.00497079	0.99973655	0	4	507	-1067244671	-1067244671	147
6.701764	-0.052368	0.007507	0.022522	0	0.0176105	0.0100384	0.9878483	0	0.02110696	0.00389886	0.99997020	0	20	506	61720688	61720688	147
6.725548	-0.052795	0.005127	0.050171	0	0.0171108	0.0094223	0.9885540	0	0.02073550	0.00349331	1.00037670	0	36	507	-1973388136	-1973388136	147
6.725623	-0.061279	0.008362	0.074341	0	0.0169678	0.0092316	0.9880466	0	0.02083087	0.00386786	1.00111294	0	52	507	-9859640	-9859640	147
6.725641	-0.063660	0.015015	0.081360	0	0.0174484	0.0096054	0.9866657	0	0.02095461	0.00481582	1.00193238	0	68	506	439695454	439695454	147
6.749496	-0.057129	0.019043	0.068420	0	0.0185947	0.0103359	0.9854374	0	0.02095819	0.00611925	1.00192189	0	84	506	193995282	193995282	147
6.749520	-0.048889	0.016846	0.043335	0	0.0197582	0.0110149	0.9853382	0	0.02141356	0.00710630	1.00084591	0	100	506	-1421624715	-1421624715	147
6.749573	-0.044128	0.012756	0.019714	0	0.0206909	0.0113735	0.9862537	0	0.02254248	0.00748563	1.00020862	0	116	506	-795997293	-795997293	147
6.773450	-0.043640	0.011536	0.010376	0	0.0214233	0.0115910	0.9874153	0	0.02383780	0.00743127	1.00095057	0	132	506	-1404936893	-1404936893	147
6.773475	-0.050720	0.009338	0.006958	0	0.0216541	0.0117931	0.9883671	0	0.02484775	0.00712609	1.00178480	0	148	506	991313308	991313308	147
6.773521	-0.065979	0.004150	-0.001526	0	0.0212402	0.0116711	0.9885445	0	0.02533388	0.00698423	1.00163341	0	164	506	-1107903205	-1107903205	147
6.797477	-0.078979	0.002869	-0.002014	0	0.0202732	0.0110817	0.9879704	0	0.02498841	0.00691652	1.00100565	0	180	506	1312688326	1312688326	147
6.797498	-0.081848	0.009583	0.006042	0	0.0188313	0.0104218	0.9872856	0	0.02357888	0.00653219	1.00057578	0	196	507	-1507115300	-1507115300	147
6.797510	-0.073120	0.013855	0.011414	0	0.0172501	0.0100441	0.9866962	0	0.02145863	0.00597119	1.00030160	0	212	507	-961302780	-961302780	147
6.821412	-0.054626	0.008362	0.021545	0	0.0162220	0.0097713	0.9865475	0	0.01951599	0.00535226	0.99990368	0	228	507	-1874655249	-1874655249	147
6.821436	-0.040833	0.001648	0.042542	0	0.0162373	0.0095119	0.9871883	0	0.01834273	0.00490022	0.99962306	0	244	506	334049709	334049709	147
6.821449	-0.042114	-0.002563	0.060547	0	0.0169678	0.0096664	0.9883537	0	0.01812315	0.00508142	0.99986315	0	4	506	-436928326	-436928326	147
6.845374	-0.049927	-0.010010	0.063049	0	0.0178566	0.0103188	0.9893608	0	0.01882315	0.00562930	1.00044465	0	20	506	1137065938	1137065938	147
6.845449	-0.056519	-0.016113	0.057800	0	0.0188904	0.0109215	0.9891205	0	0.01981902	0.00600910	1.00093627	0	36	506	1310554230	1310554230	147
6.845463	-0.062561	-0.012817	0.049561	0	0.0199699	0.0111656	0.9874172	0	0.02061772	0.00645328	1.00097251	0	52	506	-1366504902	-1366504902	147
6.869380	-0.063782	-0.002808	0.036621	0	0.0207729	0.0112152	0.9857674	0	0.02149987	0.00721693	1.00033927	0	68	506	-1039714707	-1039714707	147
6.869450	-0.055481	0.009583	0.029846	0	0.0212879	0.0110435	0.9853382	0	0.02251720	0.00778341	0.99950266	0	84	506	-2141476025	-2141476025	147
6.869466	-0.044373	0.016296	0.029053	0	0.0215149	0.0104675	0.9859867	0	0.02327943	0.00765085	0.99925256	0	100	507	-1712075505	-1712075505	147
6.893331	-0.042297	0.009766	0.025757	0	0.0213165	0.0097828	0.9873085	0	0.02366590	0.00714922	0.99976182	0	116	506	-69978361	-69978361	147
6.893359	-0.051819	-0.001953	0.027954	0	0.0206013	0.0093937	0.9884453	0	0.02356720	0.00653028	1.00065827	0	132	507	-1532208028	-1532208028	147
6.893407	-0.060608	-0.004944	0.032471	0	0.0194550	0.0092392	0.9883289	0	0.02266979	0.00549150	1.00157285	0	148	506	1922041459	1922041459	147
6.917374	-0.062317	0.001404	0.031372	0	0.0180683	0.0091457	0.9873466	0	0.02118158	0.00437927	1.00197887	0	164	506	-79785864	-79785864	147
6.917396	-0.069641	0.005188	0.039062	0	0.0168514	0.0093174	0.9864864	0	0.01963282	0.00407505	1.00131893	0	180	506	-581484101	-581484101	147
6.917447	-0.082397	0.005615	0.054932	0	0.0163383	0.0099144	0.9859276	0	0.01820421	0.00469494	1.00021052	0	196	506	1701353533	1701353533	147
6.941311	-0.078735	0.006042	0.052917	0	0.0165710	0.0105324	0.9862366	0	0.01744270	0.00582218	1.00008893	0	212	506	1980272364	1980272364	147
6.941337	-0.058777	0.005188	0.029419	0	0.0175457	0.0110378	0.9877224	0	0.01800632	0.00707150	1.00104523	0	228	506	-1602473856	-1602473856	147
6.941350	-0.049377	0.013367	0.011292	0	0.0192738	0.0118065	0.9887714	0	0.01953578	0.00774074	1.00189018	0	244	506	-1875980266	-1875980266	147
6.965264	-0.054565	0.026978	0.013672	0	0.0211620	0.0126572	0.9880371	0	0.02145791	0.00755620	1.00194263	0	4	506	-715820258	-715820258	147
6.965287	-0.057617	0.028625	0.022644	0	0.0224648	0.0127926	0.9863186	0	0.02345610	0.00728846	1.00130367	0	20	507	-1586428266	-1586428266	147
