T[s]	GYRO_X	GYRO_Y	GYRO_Z	GyroSts	ACC_X	ACC_Y	ACC_Z	AccSts	INC_X	INC_Y	INC_Z	IncSts	Counter	Latency	RxCRC	CalCRC	DG_ID	
0.103756	-0.024475	0.026855	-0.021118	0	0.9983807	0.0053291	-0.0003948	0	1.00066829	0.01048756	0.00122404	0	113	506	-1174627956	-1174627956	147
0.103770	-0.026733	0.034973	-0.007202	0	0.9982758	0.0049934	-0.0002575	0	1.00060964	0.01043200	0.00153637	0	129	507	-1962600533	-1962600533	147
0.103780	-0.017395	0.016785	-0.003540	0	0.9978294	0.0049324	-0.0002174	0	1.00082493	0.00996542	0.00196695	0	145	507	-1026004720	-1026004720	147
0.125653	-0.002747	0.007202	-0.012207	0	0.9973698	0.0051250	-0.0001678	0	1.00069475	0.00960422	0.00176978	0	161	507	1334054136	1334054136	147
0.125665	0.007080	0.009155	-0.025574	0	0.9972057	0.0051651	-0.0002098	0	1.00015974	0.00994539	0.00119734	0	177	507	-1083035095	-1083035095	147
0.125675	0.008301	0.005981	-0.034424	0	0.9972649	0.0053463	-0.0003262	0	0.99972129	0.01076770	0.00078487	0	193	506	-1112034808	-1112034808	147
0.125685	0.009216	0.009949	-0.029846	0	0.9973869	0.0057564	-0.0003471	0	0.99953628	0.01122546	0.00013757	0	209	506	-220537248	-220537248	147
0.130179	0.006165	0.016907	-0.020630	0	0.9974651	0.0059834	-0.0001717	0	0.99970865	0.01076579	-0.00073004	0	225	506	-1966363238	-1966363238	147
0.130190	-0.005188	-0.003357	-0.021912	0	0.9974213	0.0059319	-0.0000706	0	1.00015879	0.00988269	-0.00078773	0	241	506	-957265028	-957265028	147
0.165611	-0.014038	-0.020935	-0.030151	0	0.9972801	0.0056343	-0.0002594	0	1.00055099	0.00938034	0.00008154	0	1	506	933113193	933113193	147
0.165660	-0.020508	0.003052	-0.032837	0	0.9972153	0.0051651	-0.0003414	0	1.00075483	0.00934076	0.00058556	0	17	506	1182164738	1182164738	147
0.165670	-0.028259	0.023804	-0.025146	0	0.9973164	0.0047836	-0.0001945	0	1.00079131	0.00933981	0.00019503	0	33	507	796559542	796559542	147
0.165679	-0.026978	0.010681	-0.016846	0	0.9973068	0.0044708	-0.0000534	0	1.00071383	0.00919652	-0.00036430	0	49	507	-752949258	-752949258	147
0.165688	-0.018982	-0.002380	-0.017395	0	0.9970970	0.0042763	-0.0000801	0	1.00044870	0.00901151	-0.00062323	0	65	507	52851244	52851244	147
0.189575	-0.017700	-0.004761	-0.023560	0	0.9974079	0.0044708	-0.0004730	0	0.99987817	0.00878286	-0.00058842	0	81	507	-1545606169	-1545606169	147
0.189585	-0.021362	-0.006714	-0.029663	0	0.9982414	0.0048485	-0.0009003	0	0.99926639	0.00866389	-0.00013685	0	97	506	736987597	736987597	147
0.189607	-0.023071	0.006592	-0.030212	0	0.9985657	0.0052280	-0.0011120	0	0.99896717	0.00893807	0.00048089	0	113	506	-2109975128	-2109975128	147
0.213553	-0.022827	0.036499	-0.022156	0	0.9983597	0.0056553	-0.0012875	0	0.99914765	0.00948358	0.00084996	0	129	506	-1189020236	-1189020236	147
0.213606	-0.015198	0.047241	-0.010620	0	0.9981060	0.0059509	-0.0010624	0	0.99977684	0.00988007	0.00113177	0	145	506	-2085547256	-2085547256	147
0.213616	-0.003906	0.027649	-0.003479	0	0.9975128	0.0058880	-0.0002518	0	1.00035882	0.00988865	0.00102353	0	161	506	1062930879	1062930879	147
0.237526	-0.004578	0.012634	-0.002258	0	0.9968166	0.0055943	0.0003395	0	1.00042439	0.00969410	0.00027156	0	177	506	-177912795	-177912795	147
0.237573	-0.016113	0.014771	-0.001648	0	0.9968052	0.0054512	0.0001507	0	1.00008917	0.00970984	-0.00012374	0	193	507	-648710493	-648710493	147
0.237583	-0.027649	0.015564	0.003052	0	0.9971352	0.0053444	-0.0003395	0	0.99968481	0.00989580	0.00017619	0	209	507	1159875041	1159875041	147
0.261502	-0.031921	0.013428	0.003174	0	0.9973164	0.0050716	-0.0005207	0	0.99946785	0.00984144	0.00043964	0	225	507	-332411974	-332411974	147
0.261512	-0.025940	0.018311	-0.009766	0	0.9976845	0.0050678	-0.0005436	0	0.99950886	0.00978088	0.00057173	0	241	506	559776119	559776119	147
0.261564	-0.014160	0.026123	-0.028870	0	0.9978828	0.0055027	-0.0006142	0	0.99956870	0.01005316	0.00072098	0	1	507	-1226850222	-1226850222	147
0.285507	-0.003174	0.023376	-0.039795	0	0.9974003	0.0058727	-0.0004959	0	0.99953842	0.01032782	0.00083447	0	17	506	1118475878	1118475878	147
0.285517	-0.000366	0.020996	-0.032471	0	0.9970074	0.0057430	-0.0001526	0	0.99962711	0.01058245	0.00113940	0	33	506	488634400	488634400	147
0.285538	-0.006653	0.032532	-0.018005	0	0.9974937	0.0052166	0.0002899	0	0.99989820	0.01084328	0.00186944	0	49	506	2016642900	2016642900	147
0.309480	-0.011169	0.036499	-0.010742	0	0.9985313	0.0046692	0.0006313	0	1.00016093	0.01050329	0.00251842	0	65	506	-1365549285	-1365549285	147
0.309490	-0.012695	0.021545	-0.009705	0	0.9991856	0.0045853	0.0006294	0	1.00015140	0.00963426	0.00220513	0	81	506	-231481041	-231481041	147
0.309512	-0.019165	0.012512	-0.013550	0	0.9988670	0.0051231	0.0004654	0	0.99997044	0.00910234	0.00106621	0	97	506	823773604	823773604	147
0.333433	-0.022888	0.021973	-0.017639	0	0.9981842	0.0057449	0.0003986	0	0.99989986	0.00924063	0.00005579	0	113	507	-1955705275	-1955705275	147
0.333443	-0.020081	0.025330	-0.013428	0	0.9978867	0.0059185	0.0003986	0	0.99987960	0.00967932	-0.00024581	0	129	507	-1627832017	-1627832017	147
0.333453	-0.018860	0.010620	-0.006287	0	0.9976635	0.0057678	0.0003662	0	0.99976635	0.00984216	0.00009799	0	145	507	-825448905	-825448905	147
0.357427	-0.015930	0.007385	-0.008728	0	0.9974289	0.0059700	0.0001812	0	0.99955845	0.00960064	0.00062203	0	161	507	278863198	278863198	147
0.357482	-0.011658	0.025940	-0.022705	0	0.9973621	0.0066547	-0.0000763	0	0.99955130	0.00944686	0.00086141	0	177	506	-1390947532	-1390947532	147
0.357491	-0.014099	0.034912	-0.037109	0	0.9973831	0.0069218	-0.0001507	0	0.99969339	0.00962639	0.00080276	0	193	506	-1153355948	-1153355948	147
0.381431	-0.018494	0.023193	-0.038696	0	0.9977760	0.0063972	0.0000877	0	0.99939322	0.00975490	0.00077295	0	209	506	946895402	946895402	147
0.381482	-0.022034	0.017517	-0.031738	0	0.9983902	0.0056915	0.0005493	0	0.99878502	0.00959754	0.00080729	0	225	506	91469302	91469302	147
0.381491	-0.031372	0.025146	-0.028870	0	0.9987183	0.0051517	0.0006428	0	0.99854302	0.00923276	0.00071573	0	241	506	1783358208	1783358208	147
0.405407	-0.041382	0.019653	-0.030884	0	0.9986362	0.0047417	0.0001812	0	0.99869227	0.00881815	0.00065279	0	1	506	1621881172	1621881172	147
0.405418	-0.038330	-0.004089	-0.037231	0	0.9980145	0.0047874	-0.0001507	0	0.99898291	0.00878596	0.00058079	0	17	507	-1948045875	-1948045875	147
0.405473	-0.015198	-0.015930	-0.040955	0	0.9973660	0.0054646	-0.0002766	0	0.99954009	0.00922394	0.00001955	0	33	507	-107984797	-107984797	147
0.429374	0.013489	0.004761	-0.034363	0	0.9973412	0.0061474	-0.0005131	0	1.00014067	0.00979638	-0.00065827	0	49	507	1387399326	1387399326	147
0.429384	0.018188	0.038330	-0.023254	0	0.9974308	0.0061951	-0.0004311	0	1.00023842	0.01048541	-0.00048518	0	65	507	-1486802175	-1486802175	147
0.429406	0.001099	0.047119	-0.009216	0	0.9973774	0.0057297	0.0000401	0	1.00004935	0.01103926	0.00032902	0	81	506	-2008245848	-2008245848	147
0.453353	-0.010193	0.017944	0.002441	0	0.9976254	0.0052414	0.0001812	0	1.00011587	0.01082301	0.00082850	0	97	506	886432317	886432317	147
0.453364	-0.008667	-0.016663	0.000427	0	0.9977608	0.0049706	-0.0001202	0	1.00023770	0.00978208	0.00084829	0	113	506	2128767809	2128767809	147
0.453385	-0.008301	-0.013550	-0.011597	0	0.9974003	0.0047703	-0.0004005	0	0.99999332	0.00851750	0.00061154	0	129	506	-193748710	-193748710	147
0.477352	-0.014648	0.013977	-0.022278	0	0.9973354	0.0045986	-0.0006256	0	0.99986315	0.00795460	0.00014615	0	145	506	-2063030869	-2063030869	147
0.477363	-0.009216	0.019287	-0.025635	0	0.9978180	0.0046253	-0.0005817	0	1.00032735	0.00859308	0.00001144	0	161	506	1587321102	1587321102	147
0.477385	0.010315	-0.000610	-0.028931	0	0.9979572	0.0049782	0.0000801	0	1.00062966	0.00964236	0.00058508	0	177	507	-2078566244	-2078566244	147
0.501326	0.018188	-0.005371	-0.035461	0	0.9977264	0.0056000	0.0007095	0	1.00017762	0.01008391	0.00107408	0	193	507	-1035151554	-1035151554	147
0.501381	0.012573	0.015442	-0.033203	0	0.9978313	0.0060539	0.0007286	0	0.99959612	0.00986648	0.00087571	0	209	507	210236209	210236209	147
0.501390	0.007996	0.027283	-0.024048	0	0.9978523	0.0058117	0.0000706	0	0.99968028	0.00936031	0.00055146	0	225	507	-780602241	-780602241	147
0.525305	0.000977	0.017334	-0.017822	0	0.9973717	0.0050907	-0.0010986	0	1.00029588	0.00903678	0.00074029	0	241	506	-717884706	-717884706	147
0.525315	-0.012695	-0.002808	-0.011108	0	0.9971943	0.0047836	-0.0015488	0	1.00017834	0.00936317	0.00102782	0	1	506	-1051985097	-1051985097	147
0.525406	-0.027283	-0.023132	-0.008850	0	0.9975033	0.0051460	-0.0008602	0	0.99901509	0.01000166	0.00078797	0	17	506	-1437918092	-1437918092	147
0.549287	-0.037659	-0.020569	-0.017761	0	0.9975376	0.0056210	-0.0002823	0	0.99829745	0.01041579	0.00033808	0	33	506	-405903356	-405903356	147
0.549300	-0.037048	0.004333	-0.022217	0	0.9974194	0.0057774	-0.0003452	0	0.99859619	0.01067352	0.00014424	0	49	506	-1698552998	-1698552998	147
0.549353	-0.026123	0.014465	-0.017578	0	0.9976063	0.0055294	-0.0005379	0	0.99913311	0.01048040	0.00022459	0	65	506	-640910025	-640910025	147
0.573251	-0.023499	0.013977	-0.020325	0	0.9976768	0.0053825	-0.0003834	0	0.99952197	0.00975585	0.00036550	0	81	507	-1817962011	-1817962011	147
0.573262	-0.033264	0.039856	-0.028503	0	0.9975338	0.0058460	-0.0000839	0	0.99960232	0.00929713	0.00020337	0	97	507	637562421	637562421	147
0.573271	-0.038269	0.061951	-0.029358	0	0.9977226	0.0063496	0.0000172	0	0.99941182	0.00931931	-0.00016761	0	113	507	1074395391	1074395391	147
0.597225	-0.035278	0.037292	-0.025452	0	0.9981136	0.0062733	0.0000191	0	0.99945164	0.00930953	-0.00005054	0	129	507	212172443	212172443	147
0.597236	-0.033752	0.007751	-0.024353	0	0.9980869	0.0057201	-0.0001717	0	0.99963164	0.00899601	0.00086045	0	145	506	1702804094	1702804094	147
0.597245	-0.037415	0.001465	-0.024963	0	0.9977913	0.0048542	-0.0004425	0	0.99963212	0.00856256	0.00188851	0	161	506	931853559	931853559	147
0.621202	-0.043457	-0.011475	-0.024231	0	0.9977856	0.0041428	-0.0003433	0	0.99976420	0.00835347	0.00198627	0	177	506	-1509506589	-1509506589	147
0.621212	-0.046387	-0.015869	-0.028564	0	0.9975319	0.0041180	0.0000725	0	0.99988151	0.00850296	0.00089979	0	193	506	2090607453	2090607453	147
0.621222	-0.046265	0.000793	-0.037842	0	0.9968262	0.0046635	0.0004940	0	0.99948740	0.00882435	-0.00035739	0	209	506	450779969	450779969	147
0.645182	-0.042053	-0.004883	-0.038635	0	0.9965496	0.0052853	0.0005913	0	0.99885464	0.00906634	-0.00084805	0	225	506	-860935857	-860935857	147
0.645237	-0.029663	-0.015991	-0.029358	0	0.9964981	0.0055161	0.0002537	0	0.99840641	0.00932431	-0.00087714	0	241	507	105021487	105021487	147
0.645246	-0.010681	0.011475	-0.017517	0	0.9963531	0.0053730	0.0001812	0	0.99816513	0.00972915	-0.00084043	0	1	507	732135383	732135383	147
0.669150	0.006897	0.035583	-0.008484	0	0.9965134	0.0052433	0.0007191	0	0.99834585	0.00990558	-0.00063539	0	17	507	103177241	103177241	147
0.669162	0.016113	0.024536	-0.007935	0	0.9966412	0.0052528	0.0009003	0	0.99904943	0.00958180	-0.00032449	0	33	507	-362714061	-362714061	147
0.669218	0.019043	0.016296	-0.015869	0	0.9966717	0.0052204	0.0002842	0	0.99975371	0.00903344	0.00012112	0	49	507	-1778953822	-1778953822	147
0.693173	0.015686	0.020569	-0.025696	0	0.9971619	0.0049438	-0.0002918	0	1.00005722	0.00860238	0.00080514	0	65	506	993164606	993164606	147
0.693183	0.006042	0.017822	-0.028137	0	0.9978485	0.0047264	-0.0003796	0	1.00011921	0.00848722	0.00150847	0	81	506	1561758856	1561758856	147
0.693231	-0.010010	0.020142	-0.022095	0	0.9983006	0.0048714	-0.0003910	0	0.99990106	0.00854182	0.00191283	0	97	506	-1004784040	-1004784040	147
0.717126	-0.028748	0.029480	-0.015137	0	0.9988995	0.0051498	-0.0005722	0	0.99926615	0.00874662	0.00173545	0	113	506	-1336305458	-1336305458	147
0.717138	-0.028076	0.022705	-0.008972	0	0.9993668	0.0054569	-0.0005951	0	0.99893808	0.00937104	0.00108862	0	129	506	748055640	748055640	147
0.717160	-0.007568	0.015991	-0.003479	0	0.9987907	0.0057068	-0.0002499	0	0.99936414	0.00993228	0.00058365	0	145	506	-2122342679	-2122342679	147
0.741101	0.001770	0.030518	-0.001648	0	0.9980145	0.0058384	0.0001373	0	0.99972630	0.00996065	0.00033832	0	161	507	-686165640	-686165640	147
0.741112	-0.007385	0.031067	-0.007996	0	0.9981041	0.0058823	0.0003204	0	0.99963045	0.00985575	0.00009918	0	177	507	-2050264219	-2050264219	147
0.741122	-0.016357	0.012085	-0.023132	0	0.9982071	0.0056610	0.0001774	0	0.99950194	0.00978208	0.00005531	0	193	507	-810022762	-810022762	147
0.765081	-0.018250	0.006042	-0.038879	0	0.9979477	0.0053234	-0.0002861	0	0.99950075	0.00926375	0.00021315	0	209	507	1105101713	1105101713	147
0.765091	-0.018188	-0.006897	-0.048096	0	0.9979324	0.0051956	-0.0006542	0	0.99962711	0.00841856	0.00042915	0	225	506	1286569921	1286569921	147
0.765101	-0.014709	-0.029846	-0.046875	0	0.9977703	0.0052071	-0.0006428	0	0.99974775	0.00824285	0.00085831	0	241	506	1221483885	1221483885	147
0.789048	-0.009155	-0.021545	-0.040771	0	0.9973221	0.0051823	-0.0002289	0	0.99952388	0.00872397	0.00121021	0	1	506	-1674980876	-1674980876	147
0.789104	-0.004150	0.003113	-0.039368	0	0.9975300	0.0053425	0.0003033	0	0.99913406	0.00906157	0.00104499	0	17	506	1781073284	1781073284	147
0.789114	0.003113	0.012512	-0.035767	0	0.9982090	0.0058632	0.0003700	0	0.99905443	0.00924301	0.00052643	0	33	506	1055142748	1055142748	147
0.813046	0.005310	0.021179	-0.020752	0	0.9983807	0.0061741	-0.0000095	0	0.99915504	0.00952458	0.00002551	0	49	507	2103713382	2103713382	147
0.813056	-0.000793	0.026855	-0.003174	0	0.9982796	0.0059299	-0.0003395	0	0.99891090	0.00993919	-0.00019193	0	65	507	454271049	454271049	147
0.813109	-0.002441	0.012939	0.000549	0	0.9982662	0.0053043	-0.0003681	0	0.99843192	0.01020527	-0.00014400	0	81	507	-580444153	-580444153	147
0.837001	0.001892	0.001099	-0.004700	0	0.9979076	0.0046673	-0.0001450	0	0.99835753	0.01011944	-0.00002241	0	97	507	1924073552	1924073552	147
0.837011	-0.003052	0.006226	-0.001099	0	0.9973946	0.0046082	0.0000725	0	0.99864507	0.00999022	0.00011373	0	113	507	1926001949	1926001949	147
0.837060	-0.017883	0.010803	0.004700	0	0.9973049	0.0047474	0.0000973	0	0.99875903	0.00994205	0.00034451	0	129	506	-1720982456	-1720982456	147
0.860975	-0.025879	0.009033	-0.004089	0	0.9974041	0.0047112	-0.0001163	0	0.99865651	0.00992990	0.00069451	0	145	506	714559573	714559573	147
0.860985	-0.015503	0.002502	-0.020996	0	0.9974766	0.0051422	-0.0001831	0	0.99863982	0.00995755	0.00073028	0	161	506	-871013051	-871013051	147
0.860995	0.009155	-0.015137	-0.028748	0	0.9977112	0.0058231	0.0001392	0	0.99877071	0.00979185	0.00028133	0	177	506	1762804904	1762804904	147
0.884956	0.022095	-0.029968	-0.023987	0	0.9978294	0.0060406	0.0000820	0	0.99889278	0.00980783	0.00012493	0	193	506	-351138939	-351138939	147
0.884967	0.003235	-0.014160	-0.019226	0	0.9976883	0.0059052	-0.0003319	0	0.99907184	0.01043844	0.00051785	0	209	507	76871058	76871058	147
0.884977	-0.020264	0.013855	-0.023315	0	0.9976902	0.0056801	-0.0001564	0	0.99943042	0.01078844	0.00068569	0	225	507	-2097817232	-2097817232	147
0.908961	-0.012695	0.017029	-0.025513	0	0.9977474	0.0054359	0.0002575	0	0.99986863	0.01023293	0.00056481	0	241	507	-310594794	-310594794	147
0.909018	0.007141	0.013184	-0.018677	0	0.9975510	0.0054436	-0.0000534	0	1.00028753	0.00920177	0.00073266	0	1	507	-2126720276	-2126720276	147
0.909028	0.005493	0.013245	-0.013123	0	0.9973679	0.0057602	-0.0007496	0	1.00045133	0.00829363	0.00104618	0	17	507	958351876	958351876	147
0.932886	-0.008972	-0.005676	-0.011841	0	0.9975319	0.0060406	-0.0006523	0	1.00023484	0.00823498	0.00112343	0	33	506	-848007436	-848007436	147
0.932939	-0.013062	-0.019409	-0.005066	0	0.9977722	0.0061913	0.0001049	0	0.99998474	0.00931764	0.00086164	0	49	506	1974774770	1974774770	147
0.932949	-0.006287	0.004822	0.001526	0	0.9976482	0.0062180	0.0002937	0	0.99983144	0.01068473	0.00040054	0	65	506	-457505891	-457505891	147
0.956913	-0.001770	0.033630	-0.009338	0	0.9974346	0.0060406	-0.0001602	0	0.99978924	0.01105499	0.00022030	0	81	506	-1799542359	-1799542359	147
0.956924	-0.003296	0.033813	-0.022400	0	0.9974041	0.0057907	-0.0003357	0	1.00001884	0.01053524	0.00046611	0	97	506	1773791977	1773791977	147
0.956978	-0.002380	0.022583	-0.015869	0	0.9974651	0.0055943	0.0000000	0	1.00023532	0.01007962	0.00065756	0	113	506	-612591708	-612591708	147
0.980885	0.002930	0.015686	-0.005798	0	0.9976578	0.0054111	0.0004025	0	1.00020671	0.00962400	0.00034809	0	129	506	280579349	280579349	147
0.980896	0.002319	0.009216	-0.009460	0	0.9974918	0.0051422	0.0005856	0	0.99998331	0.00892043	-0.00017118	0	145	507	-1841968490	-1841968490	147
0.980906	-0.007202	0.002441	-0.025452	0	0.9970875	0.0050316	0.0004597	0	0.99928951	0.00839686	-0.00020218	0	161	507	431592999	431592999	147
1.004865	-0.015320	-0.003418	-0.042664	0	0.9975758	0.0054054	0.0001564	0	0.99822044	0.00849271	0.00022173	0	177	507	761141278	761141278	147
1.004875	-0.015381	-0.003113	-0.043762	0	0.9983730	0.0058899	-0.0001354	0	0.99751425	0.00922179	0.00054598	0	193	506	-336240847	-336240847	147
1.004885	-0.012207	0.010010	-0.027344	0	0.9982491	0.0059643	-0.0005398	0	0.99758387	0.00992966	0.00044966	0	209	506	348947977	348947977	147
1.028865	-0.013367	0.022949	-0.010315	0	0.9978924	0.0056992	-0.0009079	0	0.99850297	0.00997567	0.00005865	0	225	506	710175458	710175458	147
1.028875	-0.017029	0.017395	-0.009644	0	0.9979038	0.0052319	-0.0007744	0	0.99988985	0.00967908	0.00012159	0	241	506	1453221027	1453221027	147
1.028884	-0.016663	0.004822	-0.028259	0	0.9975739	0.0046959	-0.0003376	0	1.00046825	0.00972962	0.00098348	0	1	506	-1024386517	-1024386517	147
1.052806	-0.015076	0.001648	-0.045837	0	0.9970398	0.0045147	-0.0001373	0	0.99973774	0.01016855	0.00205183	0	17	506	1887937539	1887937539	147
1.052874	-0.018982	-0.001282	-0.043823	0	0.9971123	0.0046730	-0.0002346	0	0.99902940	0.01047039	0.00259423	0	33	506	726748442	726748442	147
1.052883	-0.018738	-0.002014	-0.034424	0	0.9976158	0.0048370	-0.0004997	0	0.99917340	0.00988841	0.00202346	0	49	507	-996638484	-996638484	147
1.076807	-0.005554	0.013123	-0.033875	0	0.9978771	0.0052185	-0.0006714	0	0.99932504	0.00822759	0.00051594	0	65	507	1678095277	1678095277	147
1.076855	0.002625	0.019287	-0.034241	0	0.9975948	0.0059013	-0.0003853	0	0.99911928	0.00666070	-0.00062680	0	81	507	1750839311	1750839311	147
1.076864	-0.003601	-0.004517	-0.026428	0	0.9972668	0.0062160	0.0000362	0	0.99925709	0.00650477	-0.00066686	0	97	507	38478942	38478942	147
1.100778	-0.010315	-0.019043	-0.022156	0	0.9976196	0.0058994	0.0000687	0	0.99968481	0.00776911	-0.00034237	0	113	506	-33286504	-33286504	147
1.100789	-0.013000	-0.006592	-0.029541	0	0.9981899	0.0055351	-0.0000038	0	0.99993134	0.00935006	-0.00011015	0	129	506	1099498970	1099498970	147
1.100842	-0.018555	-0.003052	-0.032593	0	0.9981632	0.0052490	-0.0000572	0	1.00001955	0.01033711	0.00031543	0	145	506	-1513733023	-1513733023	147
1.124767	-0.028381	-0.004578	-0.025391	0	0.9977341	0.0047131	-0.0003738	0	0.99981403	0.01089668	0.00058031	0	161	506	1829354386	1829354386	147
1.124781	-0.027771	0.007690	-0.023499	0	0.9973946	0.0042725	-0.0004272	0	0.99939656	0.01112032	0.00046825	0	177	506	1888022035	1888022035	147
1.124803	-0.007812	0.011841	-0.024902	0	0.9974041	0.0043678	0.0001011	0	0.99925303	0.01055193	0.00069833	0	193	506	1467050277	1467050277	147
1.173699	0.005920	0.006409	-0.020447	0	0.9978180	0.0046158	0.0003052	0	0.99940157	0.00942016	0.00097632	0	209	507	2099751071	2099751071	147
1.173711	-0.004639	0.009521	-0.021057	0	0.9980373	0.0048523	-0.0000420	0	0.99939251	0.00861979	0.00032878	0	225	507	-1231077128	-1231077128	147
1.173733	-0.016968	0.009460	-0.027710	0	0.9975433	0.0054131	-0.0000095	0	0.99910760	0.00846171	-0.00063086	0	241	507	318313627	318313627	147
1.173777	-0.015747	0.002319	-0.027832	0	0.9969501	0.0059357	0.0004654	0	0.99901700	0.00850153	-0.00069833	0	1	507	-672725354	-672725354	147
1.173787	-0.008484	0.007446	-0.019226	0	0.9970284	0.0060692	0.0004082	0	0.99952936	0.00852895	0.00004649	0	17	506	858913883	858913883	147
1.173796	0.001465	0.015747	-0.012329	0	0.9974957	0.0062771	-0.0003109	0	1.00031447	0.00871062	0.00052571	0	33	506	920850519	920850519	147
1.237620	0.006958	0.001160	-0.015137	0	0.9977322	0.0064049	-0.0007687	0	1.00078249	0.00923657	0.00015473	0	49	506	-1705229777	-1705229777	147
1.237687	-0.000366	-0.021240	-0.016541	0	0.9977455	0.0057182	-0.0007191	0	1.00092673	0.01011729	-0.00047994	0	65	506	541117927	541117927	147
1.237696	-0.016235	-0.015137	-0.010437	0	0.9978504	0.0046597	-0.0006161	0	1.00065970	0.01084375	-0.00041389	0	81	506	-1104564795	-1104564795	147
1.237706	-0.026306	0.002380	-0.008484	0	0.9981003	0.0042095	-0.0006161	0	0.99990940	0.01097822	0.00057006	0	97	506	-1513561394	-1513561394	147
1.237715	-0.016113	-0.006836	-0.018372	0	0.9981518	0.0044079	-0.0007896	0	0.99960756	0.01060963	0.00156641	0	113	506	-1751216886	-1751216886	147
1.237760	0.002258	-0.018066	-0.036804	0	0.9978752	0.0049095	-0.0010853	0	0.99986243	0.01004624	0.00171971	0	129	507	-532017525	-532017525	147
1.237770	0.003784	-0.003540	-0.043518	0	0.9976921	0.0056610	-0.0012970	0	0.99970245	0.00979900	0.00130081	0	145	507	335807552	335807552	147
1.237779	-0.004517	0.007874	-0.029297	0	0.9977703	0.0062733	-0.0010872	0	0.99939752	0.00990558	0.00087452	0	161	507	-985750027	-985750027	147
1.261605	-0.003479	0.006287	-0.015686	0	0.9979420	0.0062065	-0.0003262	0	0.99946976	0.00986886	0.00038338	0	177	506	404667926	404667926	147
1.261615	-0.000977	0.010437	-0.017212	0	0.9982643	0.0054169	0.0003090	0	0.99948764	0.00972247	-0.00006962	0	193	506	-1750875961	-1750875961	147
1.261637	-0.006348	0.008972	-0.024841	0	0.9984112	0.0043812	0.0004311	0	0.99921846	0.00973606	-0.00001359	0	209	506	691257061	691257061	147
1.285555	-0.007324	-0.002197	-0.027954	0	0.9980164	0.0039425	0.0005112	0	0.99877071	0.00963640	0.00039411	0	225	506	1833858887	1833858887	147
1.285610	0.002991	0.001648	-0.027649	0	0.9977760	0.0042038	0.0007286	0	0.99828267	0.00928974	0.00068593	0	241	506	-1289179077	-1289179077	147
1.285619	0.017090	0.014587	-0.023987	0	0.9979763	0.0046120	0.0008564	0	0.99833655	0.00921822	0.00081944	0	1	506	1808222906	1808222906	147
1.309553	0.022949	0.013000	-0.011597	0	0.9978619	0.0049839	0.0005627	0	0.99917841	0.00939870	0.00085640	0	17	506	327498712	327498712	147
1.309601	0.015686	0.005127	-0.001221	0	0.9973812	0.0055103	-0.0000515	0	1.00007415	0.00918818	0.00063181	0	33	507	2107056006	2107056006	147
1.309610	0.007202	-0.003052	-0.008057	0	0.9972095	0.0063171	-0.0004807	0	1.00060177	0.00895381	0.00000787	0	49	507	-670830657	-670830657	147
1.333527	-0.001282	-0.018127	-0.027588	0	0.9975605	0.0067806	-0.0007362	0	1.00092101	0.00938582	-0.00082397	0	65	506	-191571577	-191571577	147
1.333538	-0.021545	-0.015503	-0.042053	0	0.9981022	0.0063229	-0.0007210	0	1.00089097	0.00996852	-0.00139570	0	81	507	1496287932	1496287932	147
1.333579	-0.038269	0.012146	-0.039917	0	0.9984264	0.0053387	-0.0002098	0	1.00038242	0.01006365	-0.00146055	0	97	506	1987499706	1987499706	147
1.357503	-0.031860	0.016602	-0.031616	0	0.9984798	0.0046768	0.0001888	0	0.99972177	0.00980711	-0.00132108	0	113	506	-1010389799	-1010389799	147
1.357526	-0.015259	-0.007019	-0.027466	0	0.9984322	0.0048733	0.0002422	0	0.99938345	0.00932050	-0.00109172	0	129	506	415040632	415040632	147
1.357535	-0.006104	-0.007751	-0.020874	0	0.9984512	0.0053406	0.0004082	0	0.99932551	0.00886679	-0.00072503	0	145	506	-1478153919	-1478153919	147
1.381479	-0.009216	0.009277	-0.014771	0	0.9984741	0.0055866	0.0003529	0	0.99910712	0.00906777	-0.00057983	0	161	506	-1228802472	-1228802472	147
1.381503	-0.020874	0.014954	-0.020752	0	0.9982548	0.0058689	-0.0000744	0	0.99904633	0.00984502	-0.00069809	0	177	506	-1314448342	-1314448342	147
1.381513	-0.028015	0.018799	-0.033264	0	0.9979744	0.0056515	0.0000057	0	0.99959540	0.01025653	-0.00068569	0	193	507	-693955591	-693955591	147
1.405454	-0.020996	0.010376	-0.036560	0	0.9978065	0.0045891	0.0007057	0	1.00023913	0.00987816	-0.00033379	0	209	507	1216217766	1216217766	147
1.405466	-0.003113	-0.018066	-0.028503	0	0.9976006	0.0036716	0.0010757	0	1.00050640	0.00934529	0.00012708	0	225	507	-846536498	-846536498	147
1.405487	0.005310	-0.027527	-0.019409	0	0.9972668	0.0036564	0.0006046	0	1.00021601	0.00900030	0.00032902	0	241	507	1331167374	1331167374	147
1.429430	-0.004761	-0.016785	-0.016907	0	0.9969883	0.0043488	-0.0001545	0	0.99941850	0.00867701	0.00041342	0	1	506	-1167470896	-1167470896	147
1.429488	-0.008118	-0.037720	-0.020325	0	0.9972439	0.0052376	-0.0004330	0	0.99876046	0.00878692	0.00087643	0	17	506	-438138895	-438138895	147
1.429497	0.002991	-0.071350	-0.027710	0	0.9978142	0.0061169	-0.0002708	0	0.99859881	0.00968266	0.00152659	0	33	506	1104053071	1104053071	147
1.453412	0.011536	-0.044556	-0.034180	0	0.9979153	0.0068836	-0.0001888	0	0.99867916	0.01075292	0.00116539	0	49	506	189565380	189565380	147
1.453468	0.017578	0.024780	-0.033142	0	0.9977112	0.0071278	-0.0001926	0	0.99871850	0.01128650	-0.00001001	0	65	506	1334084953	1334084953	147
1.453477	0.020081	0.065308	-0.028137	0	0.9974804	0.0064507	-0.0000744	0	0.99864721	0.01098514	-0.00003314	0	81	506	311669163	311669163	147
1.477419	0.010620	0.060425	-0.024414	0	0.9970570	0.0050087	-0.0001392	0	0.99860716	0.00982881	0.00089598	0	97	507	1939427932	1939427932	147
1.477431	-0.002075	0.030029	-0.023682	0	0.9970722	0.0038090	-0.0002995	0	0.99887347	0.00850224	0.00100040	0	113	507	888281617	888281617	147
1.477485	-0.004578	0.008057	-0.030762	0	0.9977627	0.0036469	-0.0001163	0	0.99948978	0.00784159	0.00048923	0	129	507	-239205254	-239205254	147
1.501389	0.001526	0.022522	-0.048218	0	0.9982624	0.0042686	0.0000725	0	1.00000548	0.00777888	0.00027132	0	145	507	-1281828988	-1281828988	147
1.501400	0.003418	0.041138	-0.061768	0	0.9983349	0.0054951	0.0000229	0	1.00012016	0.00796819	0.00011396	0	161	506	-208099360	-208099360	147
1.501422	-0.003479	0.016479	-0.055603	0	0.9980373	0.0071163	0.0001011	0	1.00019765	0.00872207	-0.00032663	0	177	506	-1207309958	-1207309958	147
1.525366	-0.010315	-0.015625	-0.038818	0	0.9971428	0.0081558	0.0002346	0	1.00045466	0.01001549	-0.00088310	0	193	506	-1504882652	-1504882652	147
1.525389	-0.014648	0.001099	-0.023926	0	0.9966030	0.0080719	0.0001526	0	1.00034451	0.01100397	-0.00131512	0	209	506	1026226434	1026226434	147
1.525399	-0.020203	0.034363	-0.013794	0	0.9972019	0.0071640	0.0000858	0	0.99956965	0.01113200	-0.00137639	0	225	506	-246345387	-246345387	147
1.549341	-0.026245	0.029785	-0.011353	0	0.9977379	0.0057755	0.0002918	0	0.99872398	0.01026320	-0.00071096	0	241	506	1346957085	1346957085	147
1.549351	-0.030334	-0.006592	-0.016968	0	0.9976063	0.0045261	0.0005989	0	0.99845481	0.00885940	0.00058436	0	1	507	1581420279	1581420279	147
1.549373	-0.030090	-0.040466	-0.025513	0	0.9974937	0.0039940	0.0005264	0	0.99869800	0.00784039	0.00154781	0	17	507	-272232507	-272232507	147
1.573342	-0.022583	-0.035217	-0.028870	0	0.9972248	0.0043163	0.0000134	0	0.99912000	0.00743413	0.00132871	0	33	507	901314059	901314059	147
1.573407	-0.012390	0.019226	-0.025818	0	0.9965878	0.0053387	-0.0004253	0	0.99965906	0.00783849	0.00042796	0	49	507	784759818	784759818	147
1.573417	-0.011475	0.062500	-0.021851	0	0.9964886	0.0063171	-0.0002689	0	1.00003481	0.00956416	0.00005126	0	65	506	-1496642228	-1496642228	147
1.597318	-0.008606	0.039917	-0.018127	0	0.9971313	0.0067806	0.0003605	0	0.99988413	0.01166368	0.00063038	0	81	506	1551016259	1551016259	147
1.597329	0.009766	-0.013977	-0.014587	0	0.9974117	0.0068150	0.0005646	0	0.99927902	0.01261353	0.00141120	0	97	506	-146462505	-146462505	147
1.597382	0.016235	-0.048523	-0.015686	0	0.9972744	0.0060349	0.0002117	0	0.99881530	0.01264644	0.00148392	0	113	506	-1847937832	-1847937832	147
1.621289	-0.002441	-0.048096	-0.017578	0	0.9973640	0.0042324	0.0000896	0	0.99936557	0.01236129	0.00111318	0	129	506	1934484733	1934484733	147
1.621300	-0.018188	-0.003906	-0.014343	0	0.9972172	0.0024624	0.0001659	0	1.00041986	0.01148820	0.00075960	0	145	506	-916815004	-916815004	147
1.621348	-0.016724	0.051758	-0.015198	0	0.9967403	0.0018597	-0.0000267	0	1.00044560	0.01036143	0.00025535	0	161	506	1397646508	1397646508	147
1.645275	-0.004700	0.045410	-0.023315	0	0.9968014	0.0023708	-0.0001926	0	0.99953341	0.00964499	-0.00017095	0	177	506	874222326	874222326	147
1.645289	0.007446	-0.015137	-0.025452	0	0.9975128	0.0037670	0.0000648	0	0.99914956	0.00934148	-0.00036550	0	193	507	1494311366	1494311366	147
1.645311	0.005005	-0.034180	-0.017822	0	0.9981060	0.0056362	0.0001907	0	0.99970388	0.00960565	-0.00071335	0	209	507	-1378560928	-1378560928	147
1.669239	-0.010742	0.000000	-0.008362	0	0.9981518	0.0069599	-0.0002270	0	1.00022554	0.01062441	-0.00126338	0	225	507	1404842934	1404842934	147
1.669250	-0.020935	0.016113	-0.006836	0	0.9977837	0.0074348	-0.0005131	0	1.00044441	0.01175976	-0.00161600	0	241	506	580505885	580505885	147
1.669272	-0.018677	0.007751	-0.012024	0	0.9971447	0.0070133	-0.0003185	0	1.00068140	0.01215696	-0.00156379	0	1	506	-931092918	-931092918	147
1.693217	-0.008667	0.001648	-0.013611	0	0.9966106	0.0055580	0.0000744	0	1.00051284	0.01142287	-0.00114298	0	17	506	-407909112	-407909112	147
1.693241	-0.000610	-0.001587	-0.014954	0	0.9967461	0.0038548	0.0006962	0	1.00002599	0.00962234	-0.00025845	0	33	506	-867180501	-867180501	147
1.693250	-0.008728	0.008728	-0.019592	0	0.9974384	0.0030479	0.0012627	0	0.99994397	0.00755596	0.00072670	0	49	506	-130374426	-130374426	147
1.717187	-0.019836	0.034485	-0.023254	0	0.9980698	0.0034676	0.0010700	0	1.00013661	0.00655246	0.00107241	0	65	506	1990971678	1990971678	147
1.717246	-0.010437	0.044983	-0.029907	0	0.9982548	0.0045071	0.0003300	0	1.00024605	0.00729132	0.00074959	0	81	507	30045577	30045577	147
1.717255	0.008911	0.028809	-0.039124	0	0.9978523	0.0056591	-0.0003204	0	1.00038052	0.00896311	0.00023079	0	97	507	-697227699	-697227699	147
1.741160	0.020325	0.027527	-0.039307	0	0.9972897	0.0067196	-0.0006886	0	1.00041318	0.01025486	0.00003934	0	113	507	1144690994	1144690994	147
1.741174	0.017456	0.048889	-0.026733	0	0.9971657	0.0072041	-0.0005455	0	1.00021672	0.01094389	0.00047350	0	129	507	-1373711106	-1373711106	147
1.741237	-0.002441	0.040955	-0.018066	0	0.9969826	0.0068645	-0.0000343	0	0.99996877	0.01128340	0.00115633	0	145	506	-1965984009	-1965984009	147
1.765131	-0.021240	0.001892	-0.025146	0	0.9965172	0.0057316	0.0003395	0	0.99978828	0.01100612	0.00146174	0	161	506	2074568102	2074568102	147
1.765155	-0.017212	-0.033997	-0.030640	0	0.9965477	0.0040627	0.0006466	0	0.99989319	0.00997281	0.00120115	0	177	506	-72517382	-72517382	147
1.765193	-0.006653	-0.053833	-0.024841	0	0.9969997	0.0029163	0.0010490	0	1.00021648	0.00862336	0.00074744	0	193	506	-488636220	-488636220	147
1.789106	-0.013062	-0.037231	-0.020264	0	0.9971371	0.0032578	0.0010166	0	1.00010991	0.00770545	0.00053191	0	209	506	1832192843	1832192843	147
1.789117	-0.022278	0.004883	-0.019226	0	0.9970398	0.0047169	0.0002632	0	0.99930978	0.00751662	0.00043225	0	225	506	45501293	45501293	147
1.789139	-0.020935	0.018921	-0.018127	0	0.9972706	0.0062981	-0.0004559	0	0.99846172	0.00785685	0.00006032	0	241	507	-1128887451	-1128887451	147
1.813087	-0.021545	0.006226	-0.022522	0	0.9976978	0.0073757	-0.0005550	0	0.99794245	0.00866604	-0.00041938	0	1	507	2113633513	2113633513	147
1.813097	-0.030640	0.013916	-0.029602	0	0.9978466	0.0076885	-0.0005302	0	0.99760866	0.00964499	-0.00057030	0	17	507	267632505	267632505	147
1.813119	-0.033569	0.035828	-0.024841	0	0.9977646	0.0072422	-0.0007553	0	0.99778914	0.01026154	-0.00061631	0	33	506	1808498475	1808498475	147
1.837085	-0.018799	0.034302	-0.012573	0	0.9975357	0.0061359	-0.0008488	0	0.99848604	0.01014304	-0.00071144	0	49	506	560249125	560249125	147
1.837140	-0.001404	0.010437	-0.010437	0	0.9971352	0.0047722	-0.0006371	0	0.99895287	0.00941634	-0.00049162	0	65	506	1665252766	1665252766	147
1.837150	0.003052	-0.010254	-0.014709	0	0.9968777	0.0040760	-0.0001965	0	0.99892378	0.00863743	-0.00002980	0	81	506	-1492619980	-1492619980	147
1.861058	-0.002380	-0.019165	-0.018127	0	0.9970951	0.0041809	0.0003643	0	0.99886107	0.00800133	0.00054383	0	97	506	1139637065	1139637065	147
1.861108	-0.009094	-0.011414	-0.026245	0	0.9975910	0.0046158	0.0006618	0	0.99907970	0.00775170	0.00133657	0	113	506	-108949002	-108949002	147
1.861118	-0.008423	0.019897	-0.032532	0	0.9977531	0.0055122	0.0004807	0	0.99942112	0.00826168	0.00184512	0	129	506	896825024	896825024	147
1.885054	-0.000122	0.043823	-0.028015	0	0.9975185	0.0063705	-0.0000706	0	0.99983430	0.00939488	0.00148654	0	145	507	2014254966	2014254966	147
1.885065	0.003174	0.027100	-0.026672	0	0.9971714	0.0064392	-0.0008202	0	1.00038815	0.01072073	0.00090480	0	161	507	-758865671	-758865671	147
1.885120	-0.003662	0.000000	-0.037170	0	0.9966335	0.0062351	-0.0015621	0	1.00084043	0.01146913	0.00098538	0	177	507	1573239831	1573239831	147
1.909014	-0.007263	0.002075	-0.045166	0	0.9965572	0.0060463	-0.0018215	0	1.00078392	0.01112866	0.00119519	0	193	507	1599813716	1599813716	147
1.909025	-0.005737	0.013184	-0.041931	0	0.9974823	0.0055046	-0.0011482	0	1.00032783	0.01020098	0.00078630	0	209	507	-1498520899	-1498520899	147
1.909117	-0.014709	0.006409	-0.039856	0	0.9982281	0.0048904	-0.0002384	0	1.00009489	0.00930095	0.00023675	0	225	506	-131670083	-131670083	147
1.933037	-0.029297	0.001648	-0.044678	0	0.9979668	0.0046043	0.0000134	0	0.99997306	0.00865865	0.00018358	0	241	506	450978366	450978366	147
1.933056	-0.026855	0.004211	-0.042175	0	0.9975548	0.0045948	-0.0000763	0	0.99935579	0.00843120	0.00042391	0	1	506	-1076643275	-1076643275	147
1.933075	-0.014648	-0.000854	-0.032043	0	0.9975872	0.0049152	-0.0001144	0	0.99875021	0.00870848	0.00041485	0	17	506	-903992088	-903992088	147
1.956966	-0.020691	0.010864	-0.026978	0	0.9976959	0.0057011	-0.0000477	0	0.99903011	0.00943184	0.00021267	0	33	506	504756652	504756652	147
1.956977	-0.036987	0.047546	-0.025696	0	0.9976673	0.0063629	0.0002232	0	1.00002599	0.01035953	0.00008416	0	49	506	-1878458121	-1878458121	147
1.956999	-0.035095	0.057190	-0.025330	0	0.9976978	0.0062046	0.0003185	0	1.00093651	0.01115823	-0.00026560	0	65	507	2090666021	2090666021	147
1.980971	-0.021118	0.015564	-0.028809	0	0.9979877	0.0057468	0.0000248	0	1.00114012	0.01128101	-0.00057077	0	81	507	-1902257001	-1902257001	147
1.981032	-0.012573	-0.028320	-0.030457	0	0.9980869	0.0055904	-0.0000782	0	1.00084925	0.01043677	-0.00037718	0	97	507	-74378602	-74378602	147
1.981041	-0.007690	-0.031738	-0.027405	0	0.9975319	0.0054836	0.0003090	0	1.00073004	0.00939107	-0.00013399	0	113	507	1771378296	1771378296	147
2.004941	-0.001343	-0.007202	-0.029541	0	0.9971638	0.0054493	0.0006123	0	1.00065804	0.00917435	0.00018764	0	129	506	1491353504	1491353504	147
2.004993	0.003845	0.014893	-0.035706	0	0.9974995	0.0056477	0.0004654	0	1.00032496	0.00959158	0.00072598	0	145	506	1523476699	1523476699	147
2.005003	0.001709	0.016479	-0.032654	0	0.9977818	0.0060463	0.0001087	0	1.00040436	0.00961304	0.00068784	0	161	506	-166728636	-166728636	147
2.028912	0.001465	0.004028	-0.022400	0	0.9979076	0.0065193	-0.0004005	0	1.00119877	0.00912094	0.00000358	0	177	506	-1219682518	-1219682518	147
2.028922	0.013977	0.001953	-0.021362	0	0.9982319	0.0065517	-0.0010281	0	1.00174284	0.00883651	-0.00049973	0	193	506	2085152710	2085152710	147
2.028975	0.025452	0.022095	-0.029663	0	0.9982777	0.0062923	-0.0013161	0	1.00143361	0.00920534	-0.00055838	0	209	506	86286545	86286545	147
2.052889	0.016907	0.044556	-0.028259	0	0.9978561	0.0061817	-0.0009518	0	1.00066590	0.01006842	-0.00036073	0	225	507	1415314250	1415314250	147
2.052913	-0.006226	0.033813	-0.017700	0	0.9974689	0.0056248	-0.0001965	0	0.99993372	0.01062226	-0.00000978	0	241	507	949242090	949242090	147
2.052950	-0.023621	-0.004761	-0.014587	0	0.9972916	0.0046005	0.0005074	0	0.99946594	0.01037359	0.00062990	0	1	507	-2002730680	-2002730680	147
2.076870	-0.026794	-0.022522	-0.018555	0	0.9974174	0.0039253	0.0008278	0	0.99945736	0.00969791	0.00153637	0	17	507	-1666479016	-1666479016	147
2.076881	-0.023682	-0.012390	-0.021606	0	0.9975090	0.0038605	0.0005493	0	0.99986243	0.00914931	0.00213456	0	33	506	-1670841797	-1670841797	147
2.076903	-0.030457	-0.010498	-0.024231	0	0.9969673	0.0044174	-0.0002270	0	1.00016284	0.00911427	0.00201321	0	49	506	-1065925075	-1065925075	147
2.100848	-0.043945	-0.013916	-0.026672	0	0.9963627	0.0051632	-0.0007725	0	0.99996400	0.00944233	0.00132585	0	65	506	-1712751847	-1712751847	147
2.100872	-0.040100	0.000671	-0.025269	0	0.9964924	0.0054970	-0.0006599	0	0.99950290	0.00970459	0.00033140	0	81	506	1501420591	1501420591	147
2.100882	-0.022644	0.022827	-0.021606	0	0.9970112	0.0056725	-0.0003109	0	0.99936724	0.00981808	-0.00045705	0	97	506	-1402161409	-1402161409	147
2.124814	-0.014221	0.032959	-0.019470	0	0.9973621	0.0059948	0.0000019	0	0.99954057	0.00974631	-0.00038004	0	113	506	-103909776	-103909776	147
2.124875	-0.014282	0.019287	-0.019409	0	0.9974079	0.0059109	0.0001678	0	0.99952054	0.00955582	0.00036478	0	129	507	1272868200	1272868200	147
2.124884	-0.011841	-0.014343	-0.022583	0	0.9972973	0.0053120	0.0001125	0	0.99936438	0.00959802	0.00105381	0	145	507	-1346810003	-1346810003	147
2.148788	-0.010681	-0.031860	-0.033020	0	0.9973564	0.0050411	-0.0000191	0	0.99949718	0.00974488	0.00132728	0	161	507	1115882015	1115882015	147
2.148842	-0.018921	-0.008728	-0.044739	0	0.9975014	0.0052586	-0.0002117	0	0.99995208	0.00948286	0.00109220	0	177	507	130451555	130451555	147
2.148851	-0.028931	0.024231	-0.042175	0	0.9976883	0.0053463	-0.0003738	0	1.00034690	0.00912952	0.00073957	0	193	506	1461503066	1461503066	147
2.252714	-0.028259	0.025757	-0.031738	0	0.9982090	0.0052814	-0.0004501	0	1.00046659	0.00921679	0.00076485	0	209	506	-1060217547	-1060217547	147
2.252726	-0.024719	0.010559	-0.031982	0	0.9984989	0.0055294	-0.0005646	0	1.00039053	0.00938511	0.00088358	0	225	506	1785245601	1785245601	147
2.252782	-0.030334	0.016663	-0.040405	0	0.9978695	0.0058765	-0.0003891	0	1.00013351	0.00937748	0.00089526	0	241	506	-106129511	-106129511	147
2.252792	-0.032227	0.030396	-0.046448	0	0.9968548	0.0057335	0.0001850	0	0.99984956	0.00952125	0.00140262	0	1	506	1566565625	1566565625	147
2.252801	-0.022583	0.028503	-0.043884	0	0.9961967	0.0052319	0.0006485	0	0.99983668	0.00961423	0.00235343	0	17	505	1266641985	1266641985	147
2.252834	-0.021179	0.020691	-0.031860	0	0.9960613	0.0045490	0.0008278	0	0.99982643	0.00921202	0.00257158	0	33	507	1129768165	1129768165	147
2.252843	-0.026733	-0.004150	-0.020752	0	0.9965591	0.0037766	0.0007935	0	0.99943924	0.00914812	0.00175691	0	49	507	2080303544	2080303544	147
2.252853	-0.025818	-0.040466	-0.019897	0	0.9974289	0.0035667	0.0005016	0	0.99924183	0.00999713	0.00090265	0	65	507	-284172551	-284172551	147
2.252862	-0.025085	-0.036438	-0.023743	0	0.9979591	0.0041370	0.0000877	0	0.99967575	0.01038432	0.00052357	0	81	507	343010953	343010953	147
2.252900	-0.024658	-0.003113	-0.028748	0	0.9981270	0.0049896	-0.0001583	0	1.00007987	0.01004720	0.00044370	0	97	506	2075731915	2075731915	147
2.252910	-0.023315	0.007996	-0.033386	0	0.9979458	0.0058498	-0.0002136	0	0.99996829	0.01043391	0.00070071	0	113	506	-703111984	-703111984	147
2.252919	-0.023010	0.016357	-0.032349	0	0.9972553	0.0063648	-0.0003376	0	0.99960327	0.01113987	0.00112820	0	129	506	1796543378	1796543378	147
2.252928	-0.017517	0.041199	-0.031738	0	0.9971046	0.0059986	-0.0003815	0	0.99938869	0.01091242	0.00119495	0	145	506	574144369	574144369	147
2.301653	-0.010559	0.041016	-0.033203	0	0.9979343	0.0052929	-0.0001831	0	0.99944544	0.01045036	0.00082731	0	161	506	-2056738275	-2056738275	147
2.301664	-0.010437	0.013611	-0.028137	0	0.9982872	0.0052128	-0.0001278	0	0.99923301	0.01062799	0.00048852	0	177	506	1113105525	1113105525	147
2.301686	-0.009460	-0.000671	-0.022888	0	0.9977264	0.0053577	-0.0003681	0	0.99840903	0.01076770	0.00059414	0	193	506	1331895139	1331895139	147
2.301724	-0.004089	-0.007080	-0.028015	0	0.9975624	0.0051575	-0.0005455	0	0.99774432	0.01037288	0.00086045	0	209	507	465129758	465129758	147
2.301733	-0.004456	-0.015503	-0.036377	0	0.9978523	0.0050983	-0.0004311	0	0.99783444	0.01002097	0.00070477	0	225	507	1826347170	1826347170	147
2.301743	-0.005676	-0.002625	-0.038574	0	0.9976749	0.0054932	-0.0002766	0	0.99827290	0.01002812	0.00037909	0	241	507	1741534465	1741534465	147
2.325611	0.001099	0.020996	-0.040100	0	0.9974651	0.0059414	-0.0001717	0	0.99881148	0.01019168	0.00041246	0	1	507	-52993536	-52993536	147
2.325664	0.006042	0.020447	-0.042603	0	0.9975853	0.0059814	0.0000057	0	0.99949026	0.01044321	0.00058937	0	17	506	-960087594	-960087594	147
2.325674	0.006104	0.008911	-0.041931	0	0.9974957	0.0057106	-0.0002155	0	0.99997234	0.01039648	0.00075364	0	33	506	372631956	372631956	147
2.349591	0.009338	0.006104	-0.044617	0	0.9976768	0.0053806	-0.0007019	0	1.00006032	0.00971437	0.00114512	0	49	506	757998916	757998916	147
2.349602	0.011475	-0.008301	-0.049194	0	0.9983063	0.0049763	-0.0004196	0	1.00006676	0.00920343	0.00166035	0	65	506	134165725	134165725	147
2.349670	0.004761	-0.027588	-0.044373	0	0.9983883	0.0047779	0.0003681	0	1.00015712	0.00959277	0.00189281	0	81	506	84479337	84479337	147
2.373562	-0.006104	-0.022156	-0.027039	0	0.9981480	0.0049915	0.0005951	0	0.99992037	0.01012897	0.00151038	0	97	506	-231629001	-231629001	147
2.373573	-0.011902	-0.007751	-0.005310	0	0.9980602	0.0052490	0.0002289	0	0.99913406	0.01003718	0.00086546	0	113	507	-1707727597	-1707727597	147
2.373626	-0.010437	-0.001526	0.002625	0	0.9973755	0.0052452	-0.0002213	0	0.99827456	0.00970745	0.00057769	0	129	507	1484744742	1484744742	147
2.397565	-0.006042	0.009766	-0.012878	0	0.9964218	0.0053463	-0.0003433	0	0.99778366	0.00921607	0.00056005	0	145	507	1047491556	1047491556	147
2.397575	-0.002075	0.018005	-0.034363	0	0.9964905	0.0058460	-0.0001926	0	0.99763155	0.00810719	0.00075960	0	161	507	337723886	337723886	147
2.397597	0.003113	0.020386	-0.041687	0	0.9969425	0.0061779	-0.0000896	0	0.99774408	0.00714254	0.00112438	0	177	506	-748431263	-748431263	147
2.421569	0.007141	0.033752	-0.036377	0	0.9966278	0.0060024	0.0000172	0	0.99802208	0.00734711	0.00121212	0	193	506	-2021399540	-2021399540	147
2.421579	0.004456	0.034729	-0.026428	0	0.9964218	0.0057278	0.0001774	0	0.99831462	0.00813007	0.00119996	0	209	506	1985897600	1985897600	147
2.421601	-0.005737	0.005005	-0.017456	0	0.9969654	0.0055141	0.0002594	0	0.99892974	0.00878835	0.00122428	0	225	506	-82973230	-82973230	147
2.445543	-0.016907	-0.014343	-0.018616	0	0.9973068	0.0051937	0.0002003	0	0.99990845	0.00946760	0.00079036	0	241	506	-914264664	-914264664	147
2.445604	-0.019653	0.001648	-0.030884	0	0.9973164	0.0046883	-0.0001202	0	1.00016832	0.00994182	-0.00002360	0	1	506	-818802974	-818802974	147
2.445614	-0.016174	0.016357	-0.038574	0	0.9976521	0.0042858	-0.0004387	0	0.99944401	0.00976491	-0.00073123	0	17	507	44314751	44314751	147
2.469487	-0.013428	0.015686	-0.029968	0	0.9980335	0.0045071	-0.0003567	0	0.99929404	0.00914311	-0.00092483	0	33	507	-1731482115	-1731482115	147
2.469536	-0.013245	0.022400	-0.010803	0	0.9983463	0.0052280	-0.0001602	0	1.00015306	0.00891805	-0.00052643	0	49	507	-1437746481	-1437746481	147
2.469546	-0.016785	0.032959	0.002686	0	0.9987850	0.0059128	-0.0002613	0	1.00074673	0.00928187	-0.00018024	0	65	507	-275389068	-275389068	147
2.493495	-0.019531	0.043579	-0.000977	0	0.9983234	0.0062714	-0.0005512	0	1.00074792	0.00941968	-0.00025773	0	81	506	-1100713254	-1100713254	147
2.493505	-0.020081	0.051208	-0.015686	0	0.9970684	0.0060368	-0.0005436	0	1.00037408	0.00902367	-0.00036693	0	97	506	347815816	347815816	147
2.493558	-0.025635	0.031921	-0.024719	0	0.9969273	0.0053844	-0.0001106	0	0.99967909	0.00839114	-0.00008845	0	113	506	-1027033616	-1027033616	147
2.517466	-0.031555	0.001038	-0.021851	0	0.9975815	0.0050964	0.0001316	0	0.99942970	0.00783277	0.00051618	0	129	506	1007066889	1007066889	147
2.517477	-0.023743	0.001648	-0.017639	0	0.9974422	0.0054951	-0.0002708	0	0.99985123	0.00764680	0.00102949	0	145	506	-1902393253	-1902393253	147
2.517524	-0.002930	0.016541	-0.019409	0	0.9970169	0.0060482	-0.0008259	0	0.99987674	0.00772834	0.00120473	0	161	507	139333042	139333042	147
2.541466	0.010498	0.005920	-0.021729	0	0.9969196	0.0061722	-0.0008011	0	0.99911499	0.00773811	0.00097084	0	177	507	1617646507	1617646507	147
2.541476	0.005310	-0.006531	-0.019653	0	0.9967117	0.0059719	-0.0004387	0	0.99837518	0.00774884	0.00043416	0	193	507	-618457934	-618457934	147
2.541498	-0.007202	0.012329	-0.017578	0	0.9967041	0.0058537	-0.0003471	0	0.99829221	0.00814843	0.00011206	0	209	507	-1692102162	-1692102162	147
2.565418	-0.017944	0.035156	-0.019348	0	0.9970779	0.0058327	-0.0005322	0	0.99874926	0.00876594	0.00050449	0	225	507	-346698523	-346698523	147
2.565429	-0.026123	0.031738	-0.021790	0	0.9972954	0.0057697	-0.0008068	0	0.99898005	0.00894570	0.00129247	0	241	506	918464443	918464443	147
2.565450	-0.028931	0.013000	-0.020142	0	0.9974308	0.0057049	-0.0008183	0	0.99894953	0.00869012	0.00147676	0	1	506	-471930941	-471930941	147
2.589396	-0.022888	-0.006409	-0.014160	0	0.9975147	0.0055580	-0.0004082	0	0.99964786	0.00857544	0.00101781	0	17	506	-7645376	-7645376	147
2.589462	-0.014526	-0.009827	-0.008301	0	0.9971886	0.0051689	0.0000286	0	1.00075006	0.00886130	0.00090146	0	33	506	-994121756	-994121756	147
2.589471	-0.017456	0.010254	-0.009827	0	0.9967651	0.0048733	0.0001564	0	1.00094461	0.00936961	0.00114083	0	49	506	-1027260291	-1027260291	147
2.613366	-0.025513	0.015869	-0.019531	0	0.9967690	0.0050659	-0.0000629	0	1.00041652	0.00971818	0.00122285	0	65	506	1565602098	1565602098	147
2.613420	-0.022644	-0.011292	-0.022644	0	0.9971714	0.0053997	-0.0003719	0	1.00015903	0.00965858	0.00112224	0	81	506	1583372097	1583372097	147
2.613429	-0.020569	-0.023560	-0.016602	0	0.9976921	0.0054970	-0.0004768	0	1.00007915	0.00939274	0.00075078	0	97	507	756347939	756347939	147
2.637331	-0.028687	-0.001221	-0.016113	0	0.9980698	0.0054817	-0.0005035	0	0.99973631	0.00940204	0.00034785	0	113	507	-683124306	-683124306	147
2.637341	-0.020081	0.017944	-0.019897	0	0.9979000	0.0053215	-0.0005226	0	0.99938893	0.00995755	0.00033379	0	129	507	-74302370	-74302370	147
2.637395	0.003296	0.014343	-0.019714	0	0.9970512	0.0047340	-0.0003300	0	0.99922466	0.01054406	0.00039458	0	145	506	-36518667	-36518667	147
2.661336	0.003174	-0.007935	-0.016052	0	0.9961929	0.0041180	0.0000381	0	0.99902463	0.01052284	0.00024867	0	161	506	477155899	477155899	147
2.661346	-0.013794	-0.036194	-0.013000	0	0.9962044	0.0040588	0.0003624	0	0.99891853	0.01005077	0.00037575	0	177	506	707313616	707313616	147
2.661355	-0.017822	-0.033630	-0.015442	0	0.9970074	0.0043449	0.0004673	0	0.99915814	0.00924993	0.00076556	0	193	506	-1711253922	-1711253922	147
2.685305	-0.010681	0.010254	-0.026367	0	0.9976425	0.0048084	0.0003014	0	0.99942613	0.00812650	0.00050020	0	209	506	-1777256692	-1777256692	147
2.685317	-0.005310	0.041321	-0.041199	0	0.9977341	0.0055199	-0.0000019	0	0.99937391	0.00738764	-0.00043750	0	225	507	1247866281	1247866281	147
2.685339	-0.010132	0.023315	-0.045532	0	0.9977856	0.0059757	-0.0001907	0	0.99917674	0.00758243	-0.00085354	0	241	506	2009729996	2009729996	147
2.709278	-0.022400	-0.003418	-0.032593	0	0.9978848	0.0059204	-0.0002689	0	0.99932933	0.00835538	-0.00041676	0	1	507	-1334720945	-1334720945	147
2.709289	-0.023865	0.000793	-0.016663	0	0.9979305	0.0060463	-0.0006218	0	1.00016737	0.00943708	0.00023007	0	17	507	175026882	175026882	147
2.709298	-0.008911	0.015930	-0.009583	0	0.9980679	0.0065784	-0.0010262	0	1.00118351	0.01066017	0.00061822	0	33	507	-1135157588	-1135157588	147
2.733259	0.005737	0.009888	-0.006042	0	0.9978867	0.0068474	-0.0009365	0	1.00137353	0.01111770	0.00040197	0	49	507	1365674270	1365674270	147
2.733306	0.000793	-0.009399	-0.004211	0	0.9974155	0.0063972	-0.0006542	0	1.00082564	0.01035261	0.00002241	0	65	506	-528349021	-528349021	147
2.733316	-0.020813	-0.009827	-0.009705	0	0.9973583	0.0055923	-0.0005150	0	1.00040936	0.00933576	0.00019956	0	81	506	1225909064	1225909064	147
2.757254	-0.029663	0.012085	-0.019104	0	0.9974918	0.0051079	-0.0003376	0	1.00017595	0.00899673	0.00039434	0	97	506	-1432043771	-1432043771	147
2.757303	-0.013062	0.027710	-0.026367	0	0.9976292	0.0050030	0.0000381	0	0.99999118	0.00919294	0.00022626	0	113	506	-663630443	-663630443	147
2.757313	0.006470	0.020935	-0.028442	0	0.9980373	0.0050449	0.0004368	0	1.00003362	0.00944686	0.00045609	0	129	506	819478659	819478659	147
2.781235	0.005432	-0.000305	-0.020935	0	0.9982185	0.0051079	0.0003204	0	1.00002432	0.00961828	0.00129485	0	145	506	627505763	627505763	147
2.781245	-0.010864	-0.017090	-0.008667	0	0.9979801	0.0051537	-0.0003567	0	0.99973083	0.00956511	0.00198817	0	161	507	-1777049166	-1777049166	147
2.781298	-0.020203	-0.011963	-0.002380	0	0.9977398	0.0054493	-0.0007038	0	0.99937725	0.00904655	0.00201249	0	177	507	-692235353	-692235353	147
2.805204	-0.019836	0.005249	0.002502	0	0.9976559	0.0058765	-0.0002899	0	0.99911141	0.00842214	0.00166273	0	193	507	-125030357	-125030357	147
2.805215	-0.018860	0.014343	0.006836	0	0.9976578	0.0059223	0.0001526	0	0.99919868	0.00821328	0.00147843	0	209	507	32114986	32114986	147
2.805225	-0.017700	0.023193	0.000244	0	0.9975128	0.0057068	0.0002403	0	0.99971986	0.00812221	0.00167370	0	225	506	-2124220120	-2124220120	147
2.829203	-0.016357	0.034851	-0.007996	0	0.9975376	0.0055428	0.0003033	0	1.00013113	0.00792956	0.00208616	0	241	506	1160115387	1160115387	147
2.829214	-0.017456	0.025818	-0.007263	0	0.9980087	0.0053234	0.0002842	0	1.00041938	0.00819397	0.00207520	0	1	506	-1104793277	-1104793277	147
2.829223	-0.014709	0.004150	-0.007263	0	0.9981594	0.0051594	0.0000668	0	1.00103021	0.00901079	0.00143266	0	17	506	-119823943	-119823943	147
2.853175	-0.001465	-0.000916	-0.014526	0	0.9977570	0.0053349	-0.0001335	0	1.00154448	0.00982189	0.00083780	0	33	505	-314878351	-314878351	147
2.853186	0.009583	0.004395	-0.027405	0	0.9975262	0.0056133	-0.0001278	0	1.00146079	0.01023769	0.00066948	0	49	506	1517286935	1517286935	147
2.853196	0.007874	0.009705	-0.039856	0	0.9975567	0.0054665	0.0000515	0	1.00096178	0.01019740	0.00082970	0	65	507	-83189511	-83189511	147
2.877153	-0.004028	0.019653	-0.041687	0	0.9977074	0.0050030	0.0001335	0	1.00016069	0.00991297	0.00088429	0	81	507	698710451	698710451	147
2.877206	-0.021057	0.020752	-0.031006	0	0.9980927	0.0046883	-0.0000916	0	0.99949551	0.00945020	0.00027657	0	97	507	869992127	869992127	147
2.877216	-0.027710	0.007690	-0.015503	0	0.9981003	0.0045490	-0.0004883	0	0.99962687	0.00889683	-0.00043058	0	113	507	882143671	882143671	147
2.901128	-0.020386	0.006592	-0.002625	0	0.9974251	0.0045452	-0.0005245	0	1.00013113	0.00877452	-0.00041509	0	129	506	-898374701	-898374701	147
2.901139	-0.016602	0.013855	-0.001282	0	0.9971428	0.0049248	0.0000343	0	1.00009537	0.00910926	-0.00013947	0	145	506	1265490214	1265490214	147
2.901192	-0.019714	-0.002258	-0.009399	0	0.9974823	0.0056915	0.0005016	0	0.99973178	0.00914788	-0.00031114	0	161	506	-432207718	-432207718	147
2.925107	-0.018921	-0.015564	-0.015869	0	0.9972954	0.0061474	0.0003147	0	1.00000215	0.00890899	-0.00059128	0	177	506	329640313	329640313	147
2.925118	-0.019287	0.004150	-0.022888	0	0.9969616	0.0056534	-0.0001621	0	1.00083303	0.00922322	-0.00045013	0	193	506	1252492532	1252492532	147
2.925167	-0.029968	0.009399	-0.031799	0	0.9975166	0.0049381	-0.0005341	0	1.00137687	0.00980186	-0.00050402	0	209	506	1993410400	1993410400	147
2.949081	-0.040344	-0.015015	-0.036621	0	0.9979229	0.0049839	-0.0006466	0	1.00130606	0.00980639	-0.00108290	0	225	506	346599213	346599213	147
2.949091	-0.038025	-0.020020	-0.041565	0	0.9975471	0.0055523	-0.0001945	0	1.00071406	0.00978541	-0.00124407	0	241	507	-1050157826	-1050157826	147
2.949101	-0.026123	-0.007507	-0.045471	0	0.9974518	0.0060349	0.0005131	0	1.00003314	0.01018858	-0.00067949	0	1	507	1989254234	1989254234	147
2.973082	-0.013184	0.004822	-0.035156	0	0.9976120	0.0060139	0.0006218	0	0.99973559	0.01024628	-0.00014710	0	17	507	-2011426875	-2011426875	147
2.973094	-0.006775	0.033447	-0.016663	0	0.9973946	0.0055828	0.0002251	0	0.99970150	0.00989795	-0.00019240	0	33	507	-1637146803	-1637146803	147
2.973103	-0.011658	0.052368	-0.008240	0	0.9969749	0.0053482	0.0001106	0	0.99990797	0.00980806	-0.00046420	0	49	506	-774582031	-774582031	147
2.997056	-0.020203	0.029358	-0.004089	0	0.9964504	0.0052395	0.0003128	0	1.00056434	0.01004648	-0.00020194	0	65	506	-1035177679	-1035177679	147
2.997067	-0.018433	-0.000793	0.003723	0	0.9962635	0.0049858	0.0000877	0	1.00102401	0.01013565	0.00039244	0	81	506	2132903151	2132903151	147
2.997076	-0.009827	-0.009705	0.001282	0	0.9967918	0.0050697	-0.0005665	0	1.00092101	0.00983715	0.00023174	0	97	506	996209581	996209581	147
3.021031	-0.009705	-0.010315	-0.014099	0	0.9971466	0.0055351	-0.0008736	0	1.00085926	0.00955176	-0.00072622	0	113	506	254416218	254416218	147
3.021091	-0.021790	-0.000427	-0.028442	0	0.9968872	0.0058365	-0.0006809	0	1.00050211	0.00934792	-0.00132561	0	129	506	270364394	270364394	147
3.021101	-0.031311	0.012695	-0.029968	0	0.9968510	0.0060902	-0.0002327	0	0.99947858	0.00898194	-0.00127149	0	145	507	-1505386857	-1505386857	147
3.045031	-0.026794	-0.003235	-0.022400	0	0.9972534	0.0063839	0.0003204	0	0.99881840	0.00866032	-0.00085306	0	161	507	1678885584	1678885584	147
3.045041	-0.018188	-0.024353	-0.025513	0	0.9974003	0.0063324	0.0005417	0	0.99885941	0.00863171	0.00003672	0	177	507	-1962348110	-1962348110	147
3.045094	-0.013062	-0.008667	-0.039307	0	0.9973907	0.0060215	0.0003319	0	0.99896622	0.00888157	0.00080442	0	193	507	1577016930	1577016930	147
3.069004	-0.008484	0.018372	-0.045105	0	0.9975700	0.0057468	0.0002899	0	0.99914432	0.00912189	0.00069571	0	209	506	-1475932717	-1475932717	147
3.069015	-0.004456	0.031616	-0.038879	0	0.9974270	0.0055809	0.0005379	0	0.99939370	0.00932765	0.00015426	0	225	506	-1583671650	-1583671650	147
3.069070	0.000977	0.046570	-0.024353	0	0.9971199	0.0056114	0.0006580	0	0.99921584	0.00972128	-0.00016809	0	241	506	-1245913910	-1245913910	147
3.092983	0.001343	0.062134	-0.012451	0	0.9972706	0.0058975	0.0007439	0	0.99880743	0.01016212	-0.00013828	0	1	506	842926610	842926610	147
3.092997	-0.010986	0.061340	-0.019409	0	0.9974365	0.0062561	0.0007420	0	0.99873304	0.01032591	0.00023031	0	17	506	631911129	631911129	147
3.093006	-0.019653	0.051758	-0.032288	0	0.9971066	0.0062561	0.0003719	0	0.99863482	0.00994945	0.00044870	0	33	506	-117206905	-117206905	147
3.116981	-0.011536	0.039185	-0.025024	0	0.9968948	0.0057850	0.0002937	0	0.99840355	0.00923228	-0.00004196	0	49	507	761168740	761168740	147
3.116993	-0.003601	0.012756	-0.006714	0	0.9972458	0.0054855	0.0007229	0	0.99872398	0.00869155	-0.00062466	0	65	507	-892528957	-892528957	147
3.117003	-0.007019	-0.009949	-0.003296	0	0.9976406	0.0057640	0.0007572	0	0.99940300	0.00836706	-0.00026917	0	81	507	-183216130	-183216130	147
3.140957	-0.009216	-0.008240	-0.011414	0	0.9978542	0.0060101	0.0004139	0	0.99972296	0.00819302	0.00077963	0	97	507	402626062	402626062	147
3.140968	-0.004822	0.000549	-0.015320	0	0.9980145	0.0056896	0.0001125	0	0.99971509	0.00831151	0.00157452	0	113	506	-118135660	-118135660	147
3.140977	-0.000610	0.002075	-0.012451	0	0.9980221	0.0053539	-0.0004463	0	0.99975252	0.00858259	0.00167131	0	129	506	796252120	796252120	147
3.164929	-0.001160	-0.009583	-0.006897	0	0.9978218	0.0053120	-0.0009537	0	0.99988961	0.00899124	0.00096035	0	145	506	-1621602717	-1621602717	147
3.164984	-0.002808	-0.031677	-0.009766	0	0.9976597	0.0051155	-0.0009861	0	0.99994326	0.00948334	-0.00020432	0	161	506	-2081227255	-2081227255	147
3.164994	-0.002686	-0.029663	-0.022461	0	0.9977264	0.0049534	-0.0009289	0	0.99989367	0.00964999	-0.00092459	0	177	506	1349462203	1349462203	147
3.188933	-0.005554	0.005920	-0.026794	0	0.9978428	0.0050850	-0.0006943	0	0.99994445	0.00963855	-0.00074339	0	193	506	-337686004	-337686004	147
3.188944	-0.005615	0.030823	-0.017395	0	0.9978008	0.0052319	-0.0000992	0	1.00012374	0.00968194	-0.00005078	0	209	507	-503529254	-503529254	147
3.188999	0.000000	0.021973	-0.016235	0	0.9976444	0.0055561	0.0003033	0	1.00038815	0.00973487	0.00056648	0	225	507	1453591715	1453591715	147
3.212904	0.003113	0.000488	-0.028442	0	0.9976330	0.0057297	0.0001755	0	1.00070238	0.00997949	0.00105190	0	241	507	-279847420	-279847420	147
3.212914	0.009644	-0.009155	-0.033997	0	0.9978771	0.0051079	-0.0000877	0	1.00056243	0.01009989	0.00153375	0	1	507	1958393136	1958393136	147
3.212963	0.017334	0.006897	-0.032471	0	0.9978828	0.0044594	-0.0001183	0	0.99983382	0.00968170	0.00171304	0	17	506	-1331406024	-1331406024	147
3.236904	0.011292	0.033325	-0.032288	0	0.9976025	0.0045624	-0.0000229	0	0.99946499	0.00922537	0.00154161	0	33	506	1418594310	1418594310	147
3.236914	-0.003113	0.031982	-0.030273	0	0.9977608	0.0049610	0.0000896	0	0.99995232	0.00913715	0.00140071	0	49	506	1949657482	1949657482	147
3.236924	-0.011597	0.011292	-0.030334	0	0.9983044	0.0051060	0.0003128	0	1.00050068	0.00940967	0.00124431	0	65	506	2095912615	2095912615	147
3.260878	-0.009094	0.014404	-0.036011	0	0.9986935	0.0049553	0.0004768	0	1.00041151	0.00997758	0.00092936	0	81	506	2062613157	2062613157	147
3.260889	-0.003235	0.032837	-0.036926	0	0.9988022	0.0049095	0.0001888	0	0.99994183	0.01008201	0.00087094	0	97	506	832121205	832121205	147
3.260898	-0.009094	0.031860	-0.026978	0	0.9986706	0.0051365	-0.0002785	0	0.99955320	0.00938463	0.00118947	0	113	507	1409298461	1409298461	147
3.284861	-0.024841	0.020447	-0.016785	0	0.9984531	0.0052319	-0.0002098	0	0.99934363	0.00881815	0.00119710	0	129	507	-735703485	-735703485	147
3.284916	-0.030151	0.014587	-0.017761	0	0.9983654	0.0051861	0.0003395	0	0.99914026	0.00855780	0.00076222	0	145	507	-1403071040	-1403071040	147
3.284926	-0.020020	0.002075	-0.017517	0	0.9983864	0.0055275	0.0008755	0	0.99893928	0.00816655	0.00060701	0	161	507	1400953526	1400953526	147
3.308828	-0.014771	-0.007141	-0.003357	0	0.9980450	0.0063438	0.0010490	0	0.99893475	0.00813437	0.00067401	0	177	507	-1364211844	-1364211844	147
3.308883	-0.029541	0.007812	0.008240	0	0.9973431	0.0070076	0.0006123	0	0.99900389	0.00863266	0.00026417	0	193	506	-1657618904	-1657618904	147
3.308893	-0.051575	0.017578	0.006348	0	0.9972515	0.0069160	0.0000381	0	0.99910402	0.00910115	-0.00015521	0	209	506	218902090	218902090	147
3.332833	-0.058960	0.002563	-0.001160	0	0.9979782	0.0060177	0.0000114	0	0.99930286	0.00931406	0.00034904	0	225	506	-1557717699	-1557717699	147
3.332843	-0.046326	-0.007568	-0.009888	0	0.9985447	0.0048141	0.0002995	0	0.99924397	0.00933695	0.00114369	0	241	506	304575907	304575907	147
3.332896	-0.020508	-0.011780	-0.016418	0	0.9984341	0.0040989	0.0005684	0	0.99908829	0.00904036	0.00127816	0	1	506	-1417943000	-1417943000	147
3.356804	0.002991	-0.026611	-0.018677	0	0.9980145	0.0041161	0.0008106	0	0.99943376	0.00849605	0.00107670	0	17	506	-1377716887	-1377716887	147
3.356814	0.006226	-0.031067	-0.018433	0	0.9976387	0.0042629	0.0006828	0	0.99987721	0.00855756	0.00094223	0	33	507	-1680583928	-1680583928	147
3.356861	-0.008362	-0.005981	-0.014465	0	0.9972115	0.0042858	0.0002747	0	0.99971867	0.00956941	0.00101686	0	49	507	-1404528964	-1404528964	147
3.380775	-0.025757	0.027222	-0.003967	0	0.9967937	0.0047493	0.0001736	0	0.99936247	0.01051188	0.00145841	0	65	507	305323103	305323103	147
3.380786	-0.038391	0.027100	0.006836	0	0.9968548	0.0058250	0.0002327	0	0.99959326	0.01033950	0.00161767	0	81	507	707301662	707301662	147
3.380808	-0.043945	-0.007812	0.003052	0	0.9974422	0.0065651	0.0000401	0	1.00013566	0.00935984	0.00116205	0	97	506	-940270280	-940270280	147
3.469706	-0.044434	-0.028137	-0.017944	0	0.9980125	0.0061550	-0.0002899	0	1.00001574	0.00869179	0.00095963	0	113	506	-983421592	-983421592	147
3.469718	-0.044800	-0.010010	-0.041199	0	0.9981232	0.0051556	-0.0005074	0	0.99908948	0.00838852	0.00118804	0	129	506	-1482496068	-1482496068	147
3.469728	-0.040649	0.019836	-0.052002	0	0.9978313	0.0044937	-0.0003834	0	0.99828386	0.00792813	0.00119686	0	145	506	821538649	821538649	147
3.469749	-0.024536	0.036194	-0.045532	0	0.9972916	0.0045509	-0.0001450	0	0.99845243	0.00779319	0.00082731	0	161	506	-1304589754	-1304589754	147
3.469794	-0.009766	0.036743	-0.033142	0	0.9966202	0.0051079	-0.0003834	0	0.99937391	0.00848651	0.00052404	0	177	506	-1096230756	-1096230756	147
3.469804	-0.011719	0.028870	-0.029968	0	0.9964180	0.0053635	-0.0009441	0	1.00002241	0.00933194	0.00061679	0	193	507	1164062384	1164062384	147
3.469813	-0.015869	0.026489	-0.032654	0	0.9968147	0.0051174	-0.0010643	0	0.99981165	0.00947714	0.00062037	0	209	507	1788724752	1788724752	147
3.469847	-0.007568	0.032166	-0.029236	0	0.9967957	0.0049744	-0.0007248	0	0.99907827	0.00930476	0.00006318	0	225	507	-780287551	-780287551	147
3.469856	-0.001831	0.016968	-0.019897	0	0.9961586	0.0051231	-0.0005054	0	0.99845076	0.00955272	-0.00059175	0	241	507	542631864	542631864	147
3.469865	-0.005371	-0.019348	-0.016785	0	0.9958496	0.0053139	-0.0004501	0	0.99817824	0.00985098	-0.00054145	0	1	506	-606614043	-606614043	147
3.469875	-0.005188	-0.025574	-0.021484	0	0.9961872	0.0053349	-0.0003910	0	0.99829459	0.00970244	0.00005364	0	17	506	-156523604	-156523604	147
3.493653	-0.005554	0.003967	-0.019897	0	0.9969006	0.0052910	-0.0004940	0	0.99894571	0.00953102	0.00018001	0	33	506	-1520364330	-1520364330	147
3.493663	-0.013123	0.012695	-0.010620	0	0.9975338	0.0055332	-0.0006657	0	0.99968219	0.00970554	-0.00016570	0	49	505	708702269	708702269	147
3.493673	-0.014893	-0.018311	-0.006409	0	0.9976406	0.0060272	-0.0004139	0	0.99967241	0.01000428	-0.00007987	0	65	506	-1028459271	-1028459271	147
3.517628	-0.012085	-0.051880	-0.011841	0	0.9973698	0.0064163	0.0001144	0	0.99913359	0.01017380	0.00041533	0	81	507	401966529	401966529	147
3.517638	-0.016724	-0.059082	-0.022888	0	0.9969673	0.0065422	0.0002308	0	0.99885035	0.01004863	0.00067043	0	97	507	-1381832006	-1381832006	147
3.517647	-0.018677	-0.041077	-0.030579	0	0.9965210	0.0065842	-0.0000629	0	0.99882317	0.00972986	0.00061798	0	113	507	-381694731	-381694731	147
3.541636	-0.014038	-0.018616	-0.026855	0	0.9964867	0.0064926	-0.0002804	0	0.99877286	0.00957155	0.00048733	0	129	507	-1284029714	-1284029714	147
3.541683	-0.012451	-0.010193	-0.020081	0	0.9970741	0.0059357	-0.0002346	0	0.99903488	0.00950384	0.00040889	0	145	506	-1426032518	-1426032518	147
3.541693	-0.004395	-0.006592	-0.022461	0	0.9977245	0.0053596	-0.0001125	0	0.99977207	0.00926995	0.00035763	0	161	507	-1907073682	-1907073682	147
3.565601	0.010010	0.004395	-0.031006	0	0.9979763	0.0054836	-0.0000267	0	1.00033903	0.00904369	0.00017095	0	177	506	-2048242830	-2048242830	147
3.565612	0.006042	0.011353	-0.036255	0	0.9978752	0.0060844	0.0001106	0	1.00018740	0.00918913	-0.00003171	0	193	506	-523391756	-523391756	147
3.565664	-0.012878	0.010010	-0.030457	0	0.9974213	0.0064125	0.0001678	0	0.99932313	0.00971222	-0.00009251	0	209	506	705294023	705294023	147
3.589579	-0.020813	0.009827	-0.017700	0	0.9968548	0.0061722	0.0000916	0	0.99838829	0.00999570	-0.00021291	0	225	506	-1009169238	-1009169238	147
3.589590	-0.016968	0.002747	-0.010742	0	0.9969025	0.0057850	0.0000763	0	0.99842095	0.00953197	-0.00041771	0	241	507	1827790705	1827790705	147
3.589638	-0.014709	-0.005127	-0.014099	0	0.9973946	0.0057182	0.0001106	0	0.99931645	0.00894189	-0.00039315	0	1	506	-1499364441	-1499364441	147
3.613563	-0.018738	0.012756	-0.022644	0	0.9974327	0.0056820	0.0000839	0	0.99970841	0.00919199	-0.00034809	0	17	507	-166514888	-166514888	147
3.613576	-0.022705	0.028320	-0.027649	0	0.9971905	0.0051041	0.0002708	0	0.99938178	0.01009011	-0.00064421	0	33	507	-281666824	-281666824	147
3.613586	-0.023499	0.005859	-0.024109	0	0.9973488	0.0044079	0.0007439	0	0.99958706	0.01066470	-0.00075364	0	49	507	-1712920131	-1712920131	147
3.637554	-0.029785	-0.004395	-0.015991	0	0.9976063	0.0045090	0.0009918	0	1.00036383	0.01060581	-0.00030327	0	65	507	1558294499	1558294499	147
3.637564	-0.039856	0.022583	-0.012390	0	0.9975853	0.0051899	0.0007553	0	1.00056314	0.01049328	0.00044441	0	81	506	1048302657	1048302657	147
3.637574	-0.039307	0.026184	-0.014038	0	0.9977303	0.0053329	0.0001316	0	1.00028062	0.01050758	0.00139523	0	97	506	-1991546739	-1991546739	147
3.661513	-0.025696	0.004211	-0.013855	0	0.9980240	0.0047340	-0.0004539	0	1.00033712	0.01016903	0.00211382	0	113	506	-145096483	-145096483	147
3.661525	-0.014954	0.011841	-0.016418	0	0.9980946	0.0043221	-0.0004177	0	1.00066495	0.00988531	0.00188541	0	129	506	359816280	359816280	147
3.661535	-0.015015	0.032104	-0.027100	0	0.9981022	0.0044727	0.0000000	0	1.00074863	0.01014161	0.00066638	0	145	506	146568205	146568205	147
3.685509	-0.015869	0.025818	-0.030396	0	0.9977131	0.0049267	0.0002689	0	1.00040483	0.01009011	-0.00075197	0	161	506	-213914570	-213914570	147
3.685576	-0.018433	0.009277	-0.017273	0	0.9968834	0.0054016	0.0005016	0	1.00000548	0.00929499	-0.00129962	0	177	507	-1386655188	-1386655188	147
3.685585	-0.029358	-0.004089	-0.010925	0	0.9967442	0.0055275	0.0006638	0	1.00011611	0.00849581	-0.00072265	0	193	507	666940910	666940910	147
3.709481	-0.038391	-0.002197	-0.020813	0	0.9972687	0.0053444	0.0003605	0	1.00058174	0.00827122	0.00012255	0	209	507	169056092	169056092	147
3.709490	-0.038696	0.036560	-0.025208	0	0.9972363	0.0053177	-0.0001564	0	1.00073600	0.00852561	0.00031972	0	225	507	276354840	276354840	147
3.709543	-0.037231	0.066895	-0.021973	0	0.9969234	0.0056725	-0.0003510	0	1.00036907	0.00882697	-0.00001407	0	241	506	1850298543	1850298543	147
3.733456	-0.037598	0.034119	-0.026184	0	0.9971275	0.0060749	-0.0003262	0	0.99975777	0.00891829	-0.00022030	0	1	506	1338536931	1338536931	147
3.733466	-0.033875	-0.012024	-0.033813	0	0.9970760	0.0059700	-0.0002270	0	0.99922752	0.00880146	-0.00014210	0	17	506	-477410721	-477410721	147
3.733514	-0.022400	-0.012085	-0.036255	0	0.9967251	0.0056324	0.0000820	0	0.99893165	0.00838733	0.00015140	0	33	506	1326113737	1326113737	147
3.757457	-0.015320	-0.001404	-0.039368	0	0.9970989	0.0055065	0.0002689	0	0.99885201	0.00782323	0.00078654	0	49	506	-1648641774	-1648641774	147
3.757468	-0.016724	-0.008362	-0.048950	0	0.9976349	0.0053902	0.0000248	0	0.99867892	0.00780916	0.00146604	0	65	506	-2059403676	-2059403676	147
3.757478	-0.012451	-0.010376	-0.056824	0	0.9977818	0.0054550	-0.0000706	0	0.99839187	0.00855589	0.00135636	0	81	507	169927279	169927279	147
3.781388	-0.001587	-0.017700	-0.055664	0	0.9981575	0.0057640	0.0004196	0	0.99858785	0.00926185	0.00064158	0	97	507	-333976251	-333976251	147
3.781399	0.006714	-0.025513	-0.053833	0	0.9983292	0.0057163	0.0007801	0	0.99899149	0.00945616	0.00043941	0	113	507	-1115826815	-1115826815	147
3.781409	0.009644	0.005005	-0.054932	0	0.9978504	0.0053539	0.0005054	0	0.99874091	0.00955176	0.00053310	0	129	507	658936435	658936435	147
3.805409	0.001770	0.030701	-0.046692	0	0.9979191	0.0054111	0.0003414	0	0.99836969	0.00989127	0.00010872	0	145	506	-1355423416	-1355423416	147
3.805466	-0.015991	-0.001526	-0.026978	0	0.9984379	0.0060177	0.0005074	0	0.99882531	0.01027846	-0.00026989	0	161	506	-38965954	-38965954	147
3.805475	-0.029663	-0.029297	-0.013062	0	0.9978771	0.0063419	0.0003662	0	0.99936008	0.01025987	-0.00020504	0	177	506	-562780609	-562780609	147
3.829356	-0.031250	-0.015076	-0.019287	0	0.9970207	0.0059090	0.0001183	0	0.99897552	0.00974917	-0.00017214	0	193	506	-149710381	-149710381	147
3.829404	-0.025696	-0.017578	-0.036255	0	0.9971733	0.0053864	-0.0000057	0	0.99860072	0.00918484	-0.00008845	0	209	506	-635886697	-635886697	147
3.829413	-0.017944	-0.028931	-0.043396	0	0.9973240	0.0052872	-0.0002689	0	0.99903727	0.00898147	0.00011253	0	225	506	638564370	638564370	147
3.853357	-0.007263	-0.001282	-0.033752	0	0.9971771	0.0054722	-0.0004597	0	0.99936342	0.00920463	0.00026536	0	241	507	30962901	30962901	147
3.853368	-0.000122	0.021851	-0.017944	0	0.9973965	0.0058060	-0.0004387	0	0.99920416	0.00948405	0.00066090	0	1	507	338275430	338275430	147
3.853421	-0.004883	0.016907	-0.011841	0	0.9972744	0.0059319	-0.0005455	0	0.99912977	0.00932193	0.00111222	0	17	507	-777889303	-777889303	147
3.877335	-0.013733	0.016357	-0.015991	0	0.9970684	0.0057774	-0.0007133	0	0.99917698	0.00889301	0.00110698	0	33	507	150470221	150470221	147
3.877345	-0.019714	0.003540	-0.016846	0	0.9979839	0.0059013	-0.0004692	0	0.99942851	0.00892258	0.00097203	0	49	506	-1060703887	-1060703887	147
3.877392	-0.024292	-0.001709	-0.013672	0	0.9988785	0.0061588	-0.0000591	0	1.00010705	0.00957751	0.00099158	0	65	506	-1826275115	-1826275115	147
3.901303	-0.024475	0.048828	-0.017883	0	0.9983883	0.0061474	-0.0000496	0	1.00073242	0.01032352	0.00058484	0	81	506	-1843545919	-1843545919	147
3.901314	-0.021057	0.080994	-0.028687	0	0.9978924	0.0062313	-0.0002441	0	1.00094795	0.01044536	-0.00034499	0	97	506	-100195021	-100195021	147
3.901324	-0.016968	0.033569	-0.030334	0	0.9980392	0.0064964	-0.0004578	0	1.00093007	0.00959730	-0.00077987	0	113	506	-1828691989	-1828691989	147
3.925285	-0.008362	-0.007935	-0.019531	0	0.9975452	0.0065327	-0.0007172	0	1.00054240	0.00850391	-0.00031209	0	129	506	523259210	523259210	147
3.925296	0.003723	-0.000427	-0.013184	0	0.9972553	0.0063210	-0.0008469	0	0.99990034	0.00823975	0.00020552	0	145	507	-1254791157	-1254791157	147
3.925317	0.008911	0.005493	-0.017883	0	0.9982052	0.0061359	-0.0009289	0	0.99995708	0.00891113	0.00014424	0	161	507	-147765491	-147765491	147
3.949260	0.001404	0.018372	-0.021912	0	0.9984474	0.0059681	-0.0009308	0	1.00066757	0.00967264	-0.00005746	0	177	507	-1683569967	-1683569967	147
3.949316	-0.012573	0.044434	-0.017334	0	0.9973736	0.0057259	-0.0007477	0	1.00070858	0.00958490	-0.00000715	0	193	507	-813152133	-813152133	147
3.949326	-0.028198	0.029541	-0.011902	0	0.9967670	0.0055676	-0.0004864	0	1.00001788	0.00871468	-0.00008178	0	209	507	-1063986636	-1063986636	147
3.973258	-0.035889	-0.012146	-0.017944	0	0.9968872	0.0054722	-0.0001507	0	0.99967480	0.00824904	-0.00019908	0	225	506	-902865224	-902865224	147
3.973311	-0.022766	-0.026733	-0.025269	0	0.9972153	0.0052814	0.0000153	0	1.00001526	0.00893378	-0.00004554	0	241	506	-637461270	-637461270	147
3.973321	-0.007690	-0.027100	-0.013428	0	0.9978523	0.0050468	-0.0002499	0	1.00063324	0.01013184	0.00002742	0	1	506	1902981718	1902981718	147
3.997234	-0.012695	-0.021851	0.004944	0	0.9980679	0.0048676	-0.0007095	0	1.00092316	0.01066852	0.00004506	0	17	506	1157914845	1157914845	147
3.997244	-0.020813	0.006653	0.001587	0	0.9980164	0.0046749	-0.0010605	0	1.00074697	0.01030922	0.00016475	0	33	506	-1346078596	-1346078596	147
3.997301	-0.017212	0.030762	-0.022583	0	0.9988518	0.0046158	-0.0011730	0	1.00067115	0.01008725	-0.00002575	0	49	506	-1193699546	-1193699546	147
4.021212	-0.012573	0.022522	-0.043213	0	0.9994202	0.0049572	-0.0008984	0	1.00089002	0.01056027	-0.00039387	0	65	507	-1982667476	-1982667476	147
4.021222	-0.013977	0.005859	-0.041077	0	0.9986248	0.0053291	-0.0004845	0	1.00102329	0.01085734	-0.00034523	0	81	507	1153864189	1153864189	147
4.021260	-0.014221	-0.002808	-0.020874	0	0.9978638	0.0055065	-0.0003929	0	1.00099254	0.01045680	0.00015712	0	97	507	2097081697	2097081697	147
4.045212	-0.006592	-0.010559	-0.005859	0	0.9976330	0.0058918	-0.0005684	0	1.00072956	0.00999641	0.00058341	0	113	507	-893563825	-893563825	147
4.045222	-0.001038	-0.010132	-0.004944	0	0.9972897	0.0060787	-0.0006657	0	1.00016069	0.00992727	0.00060678	0	129	506	-294994751	-294994751	147
4.045244	-0.008667	-0.006653	-0.005127	0	0.9974365	0.0054073	-0.0004005	0	0.99985838	0.01007986	0.00060129	0	145	506	473629855	473629855	147
4.069182	-0.015137	-0.011230	-0.005432	0	0.9979744	0.0047379	-0.0001068	0	1.00013113	0.01019645	0.00061226	0	161	506	-339565665	-339565665	147
4.069193	-0.002441	-0.008728	-0.016418	0	0.9978809	0.0048580	-0.0001507	0	1.00029373	0.01018810	0.00014377	0	177	506	145141067	145141067	147
4.069214	0.012390	0.001648	-0.029358	0	0.9977665	0.0050411	-0.0000362	0	0.99999976	0.01017666	-0.00048494	0	193	506	-1229337777	-1229337777	147
4.093157	0.007202	0.001404	-0.034546	0	0.9980030	0.0048637	0.0002842	0	1.00019526	0.01010704	-0.00065684	0	209	506	-2085805278	-2085805278	147
4.093215	-0.008789	-0.000610	-0.037048	0	0.9978657	0.0047340	0.0002155	0	1.00102210	0.00953197	-0.00055575	0	225	507	-1283614574	-1283614574	147
4.093224	-0.020996	0.003296	-0.033752	0	0.9977283	0.0050602	-0.0002861	0	1.00102329	0.00842333	-0.00039101	0	241	507	1652073048	1652073048	147
4.117164	-0.024780	-0.003906	-0.024963	0	0.9980412	0.0060081	-0.0006123	0	1.00032949	0.00773239	-0.00021124	0	1	507	1036370441	1036370441	147
4.117224	-0.020508	-0.010071	-0.022461	0	0.9980030	0.0069084	-0.0004940	0	1.00015950	0.00841928	-0.00034547	0	17	507	-1758005450	-1758005450	147
4.117233	-0.016785	0.006042	-0.026855	0	0.9972382	0.0070190	-0.0004616	0	0.99996853	0.00995445	-0.00072694	0	33	506	538497228	538497228	147
4.141126	-0.019104	0.018372	-0.025879	0	0.9969158	0.0064621	-0.0005207	0	0.99943089	0.01065540	-0.00073910	0	49	506	-939549426	-939549426	147
4.141136	-0.018982	0.016846	-0.013428	0	0.9975815	0.0056305	-0.0003834	0	0.99931216	0.01017475	-0.00021338	0	65	505	1548999831	1548999831	147
4.141190	-0.009338	0.027710	-0.003052	0	0.9981270	0.0049267	-0.0002670	0	0.99940085	0.00974917	0.00032139	0	81	506	-915047789	-915047789	147
4.165104	-0.002136	0.035889	-0.003601	0	0.9982128	0.0048695	-0.0002499	0	0.99938846	0.00963974	0.00065136	0	97	506	1330844194	1330844194	147
4.165114	-0.011292	0.012817	-0.003601	0	0.9984188	0.0055237	-0.0003376	0	0.99963117	0.00921416	0.00092125	0	113	506	-430300623	-430300623	147
4.165161	-0.020813	-0.005493	0.001587	0	0.9985027	0.0061626	-0.0004787	0	0.99990273	0.00865960	0.00076485	0	129	507	-1653893657	-1653893657	147
4.189090	-0.008606	0.016785	0.006531	0	0.9982491	0.0062752	-0.0005989	0	0.99977136	0.00861478	0.00001121	0	145	507	1867853921	1867853921	147
4.189100	0.010742	0.035706	0.006287	0	0.9979267	0.0062256	-0.0005264	0	0.99955630	0.00927949	-0.00069571	0	161	507	-1120460610	-1120460610	147
4.189122	0.011414	0.016724	0.000977	0	0.9974041	0.0062160	-0.0001030	0	0.99959731	0.01006436	-0.00070333	0	177	507	254702934	254702934	147
4.213063	-0.004028	-0.007507	-0.002625	0	0.9971008	0.0058422	0.0001392	0	0.99971294	0.01036644	-0.00006533	0	193	506	-1086878031	-1086878031	147
4.213087	-0.017944	-0.013855	-0.005676	0	0.9974766	0.0050831	-0.0000572	0	0.99970913	0.01031399	0.00054669	0	209	506	1693996091	1693996091	147
4.213096	-0.016479	-0.008911	-0.009949	0	0.9978256	0.0043850	-0.0000496	0	0.99957323	0.00998044	0.00086236	0	225	506	-512846781	-512846781	147
4.237032	-0.006531	-0.008728	-0.008362	0	0.9978828	0.0041676	0.0002556	0	0.99970174	0.00930429	0.00108171	0	241	506	-1956149651	-1956149651	147
4.237092	-0.008545	-0.023438	-0.004883	0	0.9981346	0.0045090	0.0002651	0	1.00036526	0.00864935	0.00120115	0	1	506	-413101386	-413101386	147
4.237102	-0.019836	-0.025452	-0.009521	0	0.9984264	0.0048828	0.0000076	0	1.00080872	0.00853086	0.00100923	0	17	507	879958250	879958250	147
4.261007	-0.027100	0.004456	-0.016663	0	0.9983482	0.0050411	-0.0000610	0	1.00036645	0.00897527	0.00036788	0	33	507	-1999669904	-1999669904	147
4.261043	-0.025146	0.025757	-0.018677	0	0.9980183	0.0052147	0.0001335	0	0.99957824	0.00963521	-0.00013161	0	49	507	1049276792	1049276792	147
4.261057	-0.010254	0.008728	-0.023010	0	0.9976559	0.0053349	0.0001831	0	0.99945068	0.01034689	0.00021029	0	65	507	1164473929	1164473929	147
4.284984	0.005249	-0.016907	-0.035278	0	0.9972973	0.0052452	-0.0002098	0	1.00036407	0.01073885	0.00105047	0	81	507	-144558406	-144558406	147
4.284995	0.004395	-0.021545	-0.042358	0	0.9970798	0.0050392	-0.0005608	0	1.00144792	0.01052594	0.00170779	0	97	507	-93761850	-93761850	147
4.285047	-0.004456	-0.005188	-0.037170	0	0.9971619	0.0049191	-0.0005016	0	1.00165868	0.01033592	0.00184560	0	113	506	-2115444512	-2115444512	147
4.308932	-0.007019	0.019043	-0.036499	0	0.9973412	0.0049725	-0.0002804	0	1.00126505	0.01032043	0.00115085	0	129	506	-1806173600	-1806173600	147
4.308942	-0.007629	0.029480	-0.045654	0	0.9971962	0.0052357	-0.0000973	0	1.00083065	0.00980139	0.00000763	0	145	506	1330776803	1330776803	147
4.308989	-0.013550	0.015076	-0.043518	0	0.9969273	0.0056458	-0.0001259	0	1.00021839	0.00917149	-0.00049639	0	161	506	1828560996	1828560996	147
4.332932	-0.017151	-0.006348	-0.021912	0	0.9971924	0.0057392	-0.0003948	0	0.99976683	0.00903201	-0.00033760	0	177	506	-749312999	-749312999	147
4.332942	-0.011963	-0.004944	-0.001221	0	0.9977627	0.0052719	-0.0003834	0	1.00027609	0.00900650	-0.00030875	0	193	506	-1201776603	-1201776603	147
4.332978	-0.011414	0.019104	0.006287	0	0.9979515	0.0047340	0.0001526	0	1.00117040	0.00895166	-0.00046754	0	209	507	790045323	790045323	147
4.356907	-0.024719	0.027222	0.005859	0	0.9980354	0.0046577	0.0004711	0	1.00127482	0.00891352	-0.00063610	0	225	507	-1031640537	-1031640537	147
4.356918	-0.040283	0.005981	-0.003174	0	0.9984169	0.0050430	0.0002499	0	1.00085831	0.00894523	-0.00080419	0	241	507	2026500107	2026500107	147
4.356939	-0.047791	-0.012329	-0.019958	0	0.9984074	0.0055275	0.0001602	0	1.00052309	0.00935578	-0.00027204	0	1	507	-1169341689	-1169341689	147
4.380883	-0.043030	-0.009033	-0.034302	0	0.9975739	0.0057678	0.0003395	0	1.00016761	0.00996089	0.00097990	0	17	506	412353557	412353557	147
4.380926	-0.026367	0.000183	-0.038330	0	0.9968948	0.0059643	0.0000839	0	1.00007081	0.01041245	0.00154781	0	33	506	-1985674457	-1985674457	147
4.380935	-0.016296	0.001404	-0.034851	0	0.9970417	0.0061188	-0.0005856	0	1.00030780	0.01063585	0.00104117	0	49	506	-2015160487	-2015160487	147
4.404858	-0.020996	0.002747	-0.032288	0	0.9973011	0.0056744	-0.0008240	0	1.00021768	0.01025677	0.00010991	0	65	506	1222625074	1222625074	147
4.404907	-0.022278	0.010681	-0.032043	0	0.9973583	0.0049381	-0.0005493	0	0.99991846	0.00936270	-0.00079799	0	81	506	-36563967	-36563967	147
4.404916	-0.015747	0.016663	-0.029053	0	0.9974728	0.0048275	-0.0003376	0	0.99992156	0.00862050	-0.00113964	0	97	506	-2129819692	-2129819692	147
4.428838	-0.013550	0.017944	-0.020142	0	0.9975147	0.0052757	-0.0002956	0	0.99995399	0.00816202	-0.00087714	0	113	507	1208880475	1208880475	147
4.428848	-0.016724	0.013550	-0.015564	0	0.9977379	0.0056686	-0.0002384	0	0.99986219	0.00807762	-0.00043964	0	129	507	2080809037	2080809037	147
4.428904	-0.018066	-0.004395	-0.020325	0	0.9981632	0.0059376	-0.0001888	0	0.99994230	0.00871062	0.00003076	0	145	507	-2006370787	-2006370787	147
4.452807	-0.015869	-0.016846	-0.023560	0	0.9982624	0.0061646	-0.0003662	0	1.00011349	0.00973463	0.00022173	0	161	507	2125042806	2125042806	147
4.452817	-0.019958	0.002014	-0.023621	0	0.9981880	0.0063877	-0.0006580	0	1.00016093	0.01021075	0.00005531	0	177	506	-443784352	-443784352	147
4.452867	-0.028137	0.023193	-0.026306	0	0.9981918	0.0066605	-0.0004520	0	1.00016165	0.00992990	0.00027609	0	193	506	2026124662	2026124662	147
4.605690	-0.021790	0.014343	-0.030762	0	0.9979935	0.0066490	0.0000706	0	0.99999404	0.00956321	0.00107169	0	209	506	-1412521948	-1412521948	147
4.605701	-0.010986	-0.000061	-0.030579	0	0.9975853	0.0062084	0.0001602	0	0.99939513	0.00924063	0.00146866	0	225	506	181984992	181984992	147
4.605723	-0.016602	0.000427	-0.025024	0	0.9973068	0.0057621	-0.0000153	0	0.99872088	0.00882125	0.00097299	0	241	506	64269484	64269484	147
4.605766	-0.020935	0.002441	-0.021240	0	0.9974079	0.0055046	0.0000210	0	0.99866295	0.00888038	0.00030684	0	1	506	-1909650067	-1909650067	147
4.605776	-0.012207	0.002319	-0.020142	0	0.9977303	0.0052090	0.0003242	0	0.99916840	0.00944495	0.00013232	0	17	507	114781506	114781506	147
4.605785	-0.009216	0.007080	-0.021301	0	0.9977875	0.0049362	0.0006809	0	0.99964547	0.00959134	0.00060320	0	33	507	1071755051	1071755051	147
4.605794	-0.013489	0.006104	-0.027039	0	0.9972992	0.0049839	0.0005550	0	0.99992704	0.00906730	0.00145054	0	49	507	-1198826700	-1198826700	147
4.605833	-0.012939	-0.012695	-0.033264	0	0.9968853	0.0050011	-0.0000992	0	0.99985886	0.00846362	0.00188136	0	65	507	263686811	263686811	147
4.605842	-0.009338	-0.035461	-0.039185	0	0.9978046	0.0048275	-0.0004578	0	0.99952459	0.00845671	0.00179291	0	81	506	1325747379	1325747379	147
4.605851	-0.008545	-0.030823	-0.046021	0	0.9996853	0.0051346	-0.0001831	0	0.99988842	0.00903416	0.00179124	0	97	506	-1444238627	-1444238627	147
4.605884	-0.006042	0.024719	-0.043457	0	1.0000210	0.0057697	0.0000839	0	1.00064969	0.00923944	0.00169587	0	113	506	-80581602	-80581602	147
4.605894	-0.002991	0.081055	-0.034058	0	0.9983177	0.0061550	0.0000038	0	1.00033689	0.00883508	0.00098872	0	129	506	-2069256369	-2069256369	147
4.605903	-0.011414	0.031494	-0.034058	0	0.9972134	0.0064621	-0.0000362	0	0.99943542	0.00884819	0.00009394	0	145	506	-1235754106	-1235754106	147
4.605912	-0.021057	-0.083435	-0.034912	0	0.9975700	0.0066051	0.0002155	0	0.99936748	0.00969529	0.00007558	0	161	506	-1236644060	-1236644060	147
4.605951	-0.017212	-0.091248	-0.023193	0	0.9977703	0.0059414	0.0003052	0	0.99984550	0.01036429	0.00066066	0	177	506	-391172051	-391172051	147
4.605960	-0.015869	0.000366	-0.010559	0	0.9976597	0.0046234	0.0000191	0	0.99994707	0.00969052	0.00045848	0	193	507	1202281595	1202281595	147
4.605970	-0.023499	0.035034	-0.012573	0	0.9976749	0.0037270	-0.0001602	0	0.99987507	0.00823140	-0.00007629	0	209	507	-2036937969	-2036937969	147
4.606003	-0.020935	-0.004211	-0.026062	0	0.9975872	0.0037651	-0.0001564	0	1.00021148	0.00789547	0.00020027	0	225	507	144710826	144710826	147
4.606012	-0.012329	-0.040039	-0.035400	0	0.9979267	0.0046520	-0.0002670	0	1.00076556	0.00927806	0.00072169	0	241	507	465637224	465637224	147
4.629630	-0.009399	-0.035828	-0.033325	0	0.9984207	0.0060806	-0.0004234	0	1.00075698	0.01084805	0.00099373	0	1	506	-331127395	-331127395	147
4.629642	0.000000	0.022339	-0.029541	0	0.9979172	0.0071869	-0.0005436	0	0.99989939	0.01123714	0.00131130	0	17	506	802575676	802575676	147
4.629702	0.014526	0.079346	-0.031982	0	0.9972458	0.0072193	-0.0008736	0	0.99910307	0.01070094	0.00133443	0	33	506	1247952610	1247952610	147
4.653632	0.015442	0.045715	-0.028198	0	0.9978199	0.0063343	-0.0013371	0	0.99915385	0.00982594	0.00087380	0	49	506	405334916	405334916	147
4.653643	0.000793	-0.036377	-0.020386	0	0.9986877	0.0052738	-0.0015526	0	0.99964023	0.00894570	0.00066566	0	65	506	-2009122249	-2009122249	147
4.653653	-0.016663	-0.057007	-0.026184	0	0.9987068	0.0045948	-0.0015621	0	0.99997234	0.00852132	0.00067544	0	81	506	-903486070	-903486070	147
4.677606	-0.027832	-0.014465	-0.031189	0	0.9984989	0.0042896	-0.0014153	0	1.00010324	0.00852680	0.00030208	0	97	507	-2101490263	-2101490263	147
4.677616	-0.034851	0.025818	-0.024414	0	0.9982967	0.0043545	-0.0009785	0	1.00010729	0.00857496	-0.00018859	0	113	507	1324009248	1324009248	147
4.677625	-0.039612	0.032410	-0.025757	0	0.9978523	0.0049839	-0.0004025	0	0.99995446	0.00888181	-0.00051713	0	129	507	1754095241	1754095241	147
4.701582	-0.037720	0.013855	-0.038147	0	0.9976254	0.0057220	0.0000229	0	0.99976826	0.00972056	-0.00076413	0	145	507	61308571	61308571	147
4.701594	-0.031677	0.002747	-0.043274	0	0.9976120	0.0058441	0.0000019	0	0.99967885	0.01048303	-0.00086331	0	161	506	-435154666	-435154666	147
4.701603	-0.024353	0.021545	-0.039551	0	0.9974384	0.0052929	-0.0004463	0	0.99972796	0.01067328	-0.00090289	0	177	506	58135288	58135288	147
4.725554	-0.015015	0.034729	-0.035461	0	0.9976501	0.0042877	-0.0008965	0	1.00022125	0.01048803	-0.00098205	0	193	506	374094125	374094125	147
4.725614	-0.005371	0.003418	-0.031860	0	0.9982357	0.0034351	-0.0011387	0	1.00108385	0.01020718	-0.00079226	0	209	506	1204697985	1204697985	147
4.725623	-0.002441	-0.026001	-0.028687	0	0.9981289	0.0036602	-0.0011158	0	1.00136685	0.01005483	-0.00048780	0	225	506	142291759	142291759	147
4.749555	-0.009155	-0.004578	-0.023010	0	0.9975224	0.0049248	-0.0008926	0	1.00073695	0.00993562	-0.00065732	0	241	506	-320470547	-320470547	147
4.749567	-0.009949	0.030518	-0.016113	0	0.9972916	0.0061684	-0.0004654	0	1.00011921	0.00955701	-0.00066543	0	1	507	1443432522	1443432522	147
4.749621	-0.000488	0.032104	-0.017822	0	0.9971828	0.0065842	0.0003300	0	0.99987411	0.00903082	0.00031447	0	17	507	-572514862	-572514862	147
4.773530	-0.001099	0.002441	-0.028198	0	0.9972858	0.0062580	0.0009785	0	0.99967551	0.00886416	0.00149274	0	33	507	-2139457915	-2139457915	147
4.773540	-0.014160	-0.029053	-0.036987	0	0.9979134	0.0057640	0.0007839	0	0.99990582	0.00916529	0.00179863	0	49	507	2016474416	2016474416	147
4.773588	-0.021790	-0.026001	-0.037170	0	0.9980202	0.0056705	0.0000114	0	1.00056291	0.00936294	0.00119781	0	65	506	825311661	825311661	147
4.797504	-0.019531	0.011108	-0.030640	0	0.9971790	0.0057526	-0.0004368	0	1.00077057	0.00924039	0.00033021	0	81	505	2104770601	2104770601	147
4.797514	-0.014404	0.036682	-0.025696	0	0.9966297	0.0054913	-0.0001202	0	1.00035238	0.00926614	-0.00020194	0	97	506	-782850122	-782850122	147
4.797524	-0.012634	0.029358	-0.025269	0	0.9969234	0.0052071	0.0004120	0	0.99975681	0.00942874	-0.00013590	0	113	506	-1022455276	-1022455276	147
4.821483	-0.014038	0.010925	-0.026367	0	0.9972649	0.0050716	0.0007687	0	0.99927545	0.00916386	0.00048351	0	129	506	1068561198	1068561198	147
4.821494	-0.012756	-0.000061	-0.029785	0	0.9973373	0.0048676	0.0009422	0	0.99920845	0.00877142	0.00122547	0	145	506	-627778312	-627778312	147
4.821503	-0.007812	-0.001587	-0.031860	0	0.9976578	0.0048637	0.0006123	0	0.99973607	0.00898862	0.00182438	0	161	507	307296080	307296080	147
4.845458	-0.004211	0.009155	-0.024109	0	0.9978027	0.0053234	-0.0000343	0	1.00054455	0.00926757	0.00207353	0	177	507	461161764	461161764	147
4.845469	-0.006531	0.027893	-0.018127	0	0.9972496	0.0061989	-0.0003853	0	1.00097561	0.00882816	0.00157404	0	193	507	-577074015	-577074015	147
4.845478	-0.007568	0.030884	-0.024658	0	0.9969826	0.0070095	-0.0003433	0	1.00065184	0.00840306	0.00088549	0	209	507	2146663874	2146663874	147
4.869435	-0.005676	0.012207	-0.024597	0	0.9974136	0.0071049	-0.0000687	0	1.00002384	0.00864387	0.00079322	0	225	506	267223448	267223448	147
4.869489	-0.009888	-0.004822	-0.011963	0	0.9977188	0.0065174	0.0003223	0	0.99995041	0.00894713	0.00097299	0	241	506	1602402370	1602402370	147
4.869499	-0.009705	-0.009216	-0.010193	0	0.9977283	0.0056591	0.0006275	0	1.00055432	0.00886893	0.00101924	0	1	506	-513500246	-513500246	147
4.893408	-0.002625	-0.008118	-0.019531	0	0.9977112	0.0049782	0.0006199	0	1.00118279	0.00859165	0.00108600	0	17	506	2045099188	2045099188	147
4.893419	-0.004761	-0.012512	-0.019043	0	0.9977131	0.0050201	0.0003757	0	1.00124955	0.00829673	0.00116611	0	33	506	-1161384403	-1161384403	147
4.893478	-0.012451	-0.034058	-0.012268	0	0.9979858	0.0054359	0.0001869	0	1.00078106	0.00813079	0.00104523	0	49	506	-2049023512	-2049023512	147
4.917389	-0.019531	-0.052307	-0.010376	0	0.9984055	0.0054550	-0.0000515	0	1.00053406	0.00824904	0.00087500	0	65	506	1297605805	1297605805	147
4.917401	-0.026245	-0.025513	-0.006409	0	0.9984951	0.0053177	-0.0005322	0	1.00085068	0.00866604	0.00087810	0	81	507	975978625	975978625	147
4.917456	-0.028198	0.029114	-0.001221	0	0.9985542	0.0053406	-0.0007038	0	1.00103235	0.00936246	0.00088978	0	97	507	787329542	787329542	147
4.941368	-0.026367	0.050049	-0.006775	0	0.9987068	0.0053711	-0.0001526	0	1.00054717	0.00999498	0.00081944	0	113	507	-633356281	-633356281	147
4.941379	-0.023987	0.023132	-0.022034	0	0.9983253	0.0055027	0.0004482	0	0.99962139	0.01016021	0.00091624	0	129	507	-828648686	-828648686	147
4.941388	-0.025391	-0.016846	-0.037170	0	0.9975815	0.0058575	0.0005226	0	0.99898839	0.01020265	0.00104928	0	145	506	-1185261879	-1185261879	147
4.965345	-0.027710	-0.036865	-0.039978	0	0.9972324	0.0061607	0.0003548	0	0.99933815	0.01031399	0.00080943	0	161	506	-1300232946	-1300232946	147
4.965356	-0.022705	-0.024353	-0.027344	0	0.9973335	0.0061474	0.0004406	0	1.00010204	0.00997186	0.00032663	0	177	506	819866049	819866049	147
4.965366	-0.015259	0.003845	-0.018555	0	0.9977055	0.0058537	0.0007324	0	1.00010133	0.00925040	-0.00015116	0	193	506	1514076051	1514076051	147
4.989317	-0.004944	0.008484	-0.022644	0	0.9982853	0.0051937	0.0005646	0	0.99962258	0.00890398	-0.00050306	0	209	506	-1981749544	-1981749544	147
4.989370	0.014465	-0.014038	-0.024414	0	0.9985867	0.0044994	-0.0003376	0	0.99964094	0.00900578	-0.00032520	0	225	506	-1290560424	-1290560424	147
4.989380	0.025940	-0.016785	-0.019592	0	0.9981098	0.0045662	-0.0013390	0	1.00018764	0.00900555	0.00037742	0	241	507	-739213118	-739213118	147
5.013316	0.013916	0.014343	-0.015259	0	0.9971371	0.0050354	-0.0016994	0	1.00107837	0.00895286	0.00071526	0	1	507	-1650049445	-1650049445	147
5.013378	-0.007751	0.035889	-0.014771	0	0.9964409	0.0049992	-0.0011864	0	1.00186324	0.00907826	0.00031447	0	17	507	-1227660817	-1227660817	147
5.013388	-0.014465	0.029480	-0.018555	0	0.9964447	0.0046291	-0.0001678	0	1.00149059	0.00883317	-0.00016975	0	33	507	-2034200006	-2034200006	147
5.037299	-0.006287	0.023499	-0.020203	0	0.9970512	0.0043240	0.0005379	0	1.00023127	0.00834346	-0.00028849	0	49	506	2013028073	2013028073	147
5.037313	-0.000977	0.029358	-0.017944	0	0.9976463	0.0042667	0.0005627	0	0.99940276	0.00865388	-0.00024581	0	65	506	-1781316246	-1781316246	147
5.037377	0.008972	0.025269	-0.015259	0	0.9974899	0.0047359	0.0003166	0	0.99898624	0.00965285	-0.00012040	0	81	506	1346320227	1346320227	147
5.061268	0.022827	0.003479	-0.014038	0	0.9969521	0.0053825	0.0000782	0	0.99853873	0.01031065	0.00029802	0	97	506	-432717290	-432717290	147
5.061278	0.015259	-0.012085	-0.024414	0	0.9970398	0.0055256	-0.0000267	0	0.99865055	0.01039338	0.00066209	0	113	506	1642126516	1642126516	147
5.061326	-0.000610	-0.005249	-0.045166	0	0.9976273	0.0054188	0.0002003	0	0.99935198	0.01042199	0.00050497	0	129	507	-1542313330	-1542313330	147
5.085245	-0.002563	0.007751	-0.054871	0	0.9979286	0.0055504	0.0004616	0	0.99949384	0.01042032	0.00008011	0	145	507	32419932	32419932	147
5.085257	-0.004150	0.009155	-0.049255	0	0.9979286	0.0056171	0.0004673	0	0.99902487	0.01003528	0.00010586	0	161	507	-257159295	-257159295	147
5.085279	-0.012085	0.000488	-0.039307	0	0.9979534	0.0053997	0.0003262	0	0.99899483	0.00945640	0.00078177	0	177	507	1366785225	1366785225	147
5.109215	-0.018494	-0.006470	-0.029663	0	0.9979076	0.0052795	-0.0000076	0	0.99929643	0.00910020	0.00122309	0	193	507	453736872	453736872	147
5.109225	-0.021912	0.001770	-0.021973	0	0.9978256	0.0055046	-0.0004864	0	0.99934602	0.00902247	0.00095296	0	209	506	296108630	296108630	147
5.109247	-0.015564	0.011292	-0.012451	0	0.9980011	0.0055656	-0.0007057	0	0.99945569	0.00886202	0.00080705	0	225	506	584767665	584767665	147
5.133195	-0.000793	-0.003357	0.001343	0	0.9981823	0.0051861	-0.0006027	0	0.99996042	0.00872087	0.00125074	0	241	506	88813482	88813482	147
5.133268	0.006226	-0.016663	0.005798	0	0.9981441	0.0050087	-0.0004520	0	1.00060582	0.00910687	0.00158215	0	1	506	682208576	682208576	147
5.133278	0.002441	0.003662	-0.005981	0	0.9980984	0.0050793	-0.0004578	0	1.00095081	0.00935507	0.00129318	0	17	506	-248951613	-248951613	147
5.157197	-0.001221	0.027222	-0.016846	0	0.9977989	0.0048485	-0.0006180	0	1.00062990	0.00895405	0.00074172	0	33	506	-1280155455	-1280155455	147
5.157247	0.000061	0.017761	-0.015320	0	0.9973412	0.0046082	-0.0006065	0	1.00004482	0.00902367	0.00051761	0	49	507	580029213	580029213	147
5.157256	0.001648	-0.007141	-0.007263	0	0.9974594	0.0049305	-0.0004826	0	1.00016260	0.00975013	0.00054026	0	65	507	-1314917171	-1314917171	147
5.181195	0.002869	-0.014404	-0.000305	0	0.9979877	0.0054035	-0.0007019	0	1.00081539	0.00978184	0.00027084	0	81	507	-1379865000	-1379865000	147
5.181205	0.000549	-0.005859	0.004333	0	0.9983540	0.0054970	-0.0009270	0	1.00095105	0.00903273	-0.00006819	0	97	507	998643364	998643364	147
5.181258	-0.008057	-0.003052	0.005676	0	0.9983253	0.0055275	-0.0004826	0	1.00034571	0.00861049	-0.00000572	0	113	507	1931952273	1931952273	147
5.205167	-0.012573	-0.015808	-0.004944	0	0.9976978	0.0055008	0.0001907	0	0.99962282	0.00872803	0.00036931	0	129	506	821691548	821691548	147
5.205178	-0.008545	-0.030945	-0.019348	0	0.9970741	0.0052280	0.0001049	0	0.99944401	0.00899911	0.00088263	0	145	506	-1769698601	-1769698601	147
5.205200	-0.004761	-0.017700	-0.020020	0	0.9971867	0.0052414	-0.0004444	0	1.00004482	0.00929141	0.00107360	0	161	506	1648743240	1648743240	147
5.229147	-0.004761	0.017944	-0.014771	0	0.9973316	0.0056877	-0.0006180	0	1.00080681	0.00952840	0.00044417	0	177	506	-730430653	-730430653	147
5.229158	-0.004272	0.030579	-0.012146	0	0.9967766	0.0056477	-0.0005341	0	1.00102234	0.00988531	-0.00035715	0	193	507	2053124006	2053124006	147
5.229180	-0.006714	0.017639	-0.006714	0	0.9962902	0.0048046	-0.0005169	0	1.00084758	0.01058984	-0.00033426	0	209	507	-2119013004	-2119013004	147
5.253118	-0.013550	0.004883	-0.003418	0	0.9968319	0.0042992	-0.0006638	0	1.00058484	0.01134396	0.00056672	0	225	507	1668920049	1668920049	147
5.253129	-0.015625	-0.005798	-0.006348	0	0.9978714	0.0047340	-0.0007973	0	1.00046825	0.01152587	0.00167179	0	241	507	-1102588541	-1102588541	147
5.253150	-0.014099	-0.006470	-0.006897	0	0.9981155	0.0053787	-0.0005760	0	1.00061440	0.01090360	0.00196862	0	1	507	422717474	422717474	147
5.277094	-0.017090	0.005249	-0.007080	0	0.9977188	0.0057182	-0.0003300	0	1.00043344	0.01006937	0.00117898	0	17	507	-502397940	-502397940	147
5.277147	-0.028259	0.009399	-0.017090	0	0.9977913	0.0057144	-0.0004387	0	0.99991179	0.00950265	0.00015473	0	33	506	1960278811	1960278811	147
5.277156	-0.040161	0.009155	-0.031494	0	0.9979191	0.0054512	-0.0005169	0	1.00000215	0.00893784	-0.00023198	0	49	506	1276053084	1276053084	147
5.301099	-0.036743	0.021790	-0.037170	0	0.9975033	0.0052204	-0.0003986	0	1.00058103	0.00848866	0.00009704	0	65	506	-927680086	-927680086	147
5.301149	-0.016785	0.030029	-0.034851	0	0.9974937	0.0050850	-0.0001965	0	1.00073314	0.00863886	0.00073195	0	81	506	-1273299266	-1273299266	147
5.301158	0.007385	0.011597	-0.028748	0	0.9977646	0.0048771	0.0001469	0	1.00067854	0.00912595	0.00133133	0	97	506	412671731	412671731	147
5.325067	0.024597	-0.009277	-0.021484	0	0.9971886	0.0044136	0.0003242	0	1.00076771	0.00937343	0.00141168	0	113	506	-1226357185	-1226357185	147
5.325078	0.025452	-0.007812	-0.018799	0	0.9966621	0.0039215	0.0001850	0	1.00050235	0.00952649	0.00097322	0	129	507	-2020316461	-2020316461	147
5.325131	0.005737	-0.001587	-0.017944	0	0.9972401	0.0040989	0.0002232	0	1.00011539	0.00998712	0.00082231	0	145	507	215984544	215984544	147
5.349043	-0.020691	-0.001282	-0.017883	0	0.9979057	0.0051918	0.0004330	0	1.00017953	0.01020455	0.00130033	0	161	507	-595990608	-595990608	147
5.349054	-0.031311	0.000305	-0.026001	0	0.9980145	0.0063972	0.0004978	0	1.00012660	0.00972915	0.00212574	0	177	507	-229975972	-229975972	147
5.349076	-0.023376	-0.005859	-0.043762	0	0.9981060	0.0067291	0.0004749	0	0.99965763	0.00940466	0.00281978	0	193	506	1019704591	1019704591	147
5.373020	-0.016968	-0.007080	-0.056458	0	0.9980049	0.0062466	0.0000534	0	0.99936628	0.00980735	0.00273705	0	209	506	2087815147	2087815147	147
5.373030	-0.022644	0.011597	-0.046692	0	0.9974823	0.0057812	-0.0006428	0	0.99945927	0.01051235	0.00196624	0	225	506	1139695392	1139695392	147
5.373051	-0.030518	0.010315	-0.023865	0	0.9971619	0.0057869	-0.0007153	0	0.99976397	0.01076937	0.00124216	0	241	506	-1835868290	-1835868290	147
5.396994	-0.039307	-0.008728	-0.012512	0	0.9972782	0.0062103	-0.0004482	0	1.00015473	0.01030421	0.00073743	0	1	506	-1986774585	-1986774585	147
5.397004	-0.047302	0.010864	-0.015198	0	0.9973202	0.0065422	-0.0005779	0	1.00040841	0.00979686	0.00032187	0	17	506	-709559518	-709559518	147
5.397026	-0.039673	0.046326	-0.019043	0	0.9971504	0.0058823	-0.0007591	0	1.00054789	0.00974822	0.00012779	0	33	506	-1793930647	-1793930647	147
5.420995	-0.019836	0.039185	-0.023560	0	0.9971313	0.0046501	-0.0007858	0	1.00088644	0.01001120	0.00026202	0	49	507	-664378054	-664378054	147
5.421054	-0.007874	0.007202	-0.028198	0	0.9971104	0.0044136	-0.0008717	0	1.00088358	0.01011539	0.00060725	0	65	507	707486115	707486115	147
5.421063	-0.014526	-0.008667	-0.029785	0	0.9970951	0.0049572	-0.0009632	0	1.00000310	0.00942421	0.00101376	0	81	507	1836997790	1836997790	147
5.444943	-0.031189	-0.010315	-0.032471	0	0.9972401	0.0050735	-0.0010262	0	0.99947143	0.00835872	0.00140595	0	97	506	1701151503	1701151503	147
5.444993	-0.036804	-0.005127	-0.035156	0	0.9971199	0.0049381	-0.0010738	0	0.99999309	0.00809813	0.00158620	0	113	506	-1505592212	-1505592212	147
5.445003	-0.028198	0.006042	-0.038025	0	0.9970322	0.0049667	-0.0010433	0	1.00040507	0.00869989	0.00135112	0	129	506	-725573930	-725573930	147
5.468942	-0.013733	0.000854	-0.042908	0	0.9975147	0.0049877	-0.0010242	0	1.00031495	0.00924587	0.00075674	0	145	506	-1118933922	-1118933922	147
5.468953	0.002441	-0.006287	-0.039429	0	0.9979553	0.0050144	-0.0009594	0	1.00019455	0.00947976	0.00014997	0	161	506	419872550	419872550	147
5.469007	0.005737	0.026917	-0.028015	0	0.9978333	0.0053158	-0.0006714	0	0.99978542	0.00999022	0.00001287	0	177	506	1929969738	1929969738	147
5.492918	-0.007996	0.062500	-0.021729	0	0.9975719	0.0059090	-0.0003300	0	0.99918079	0.01071692	0.00042391	0	193	507	498137750	498137750	147
5.492928	-0.017883	0.047852	-0.022705	0	0.9976082	0.0064564	-0.0001030	0	0.99920368	0.01100183	0.00088882	0	209	507	-799781874	-799781874	147
5.492950	-0.020752	0.014526	-0.026062	0	0.9977951	0.0065346	-0.0000267	0	0.99979377	0.01103878	0.00100613	0	225	507	-186910448	-186910448	147
5.516914	-0.033875	-0.000549	-0.026245	0	0.9979420	0.0060482	-0.0002594	0	1.00018382	0.01118684	0.00083613	0	241	507	-2046358940	-2046358940	147
5.516937	-0.046021	0.001038	-0.022949	0	0.9978790	0.0055180	-0.0005703	0	1.00051212	0.01108527	0.00050998	0	1	507	-156198357	-156198357	147
5.516947	-0.038574	0.016602	-0.019287	0	0.9973106	0.0052624	-0.0004959	0	1.00102639	0.01060677	0.00004625	0	17	506	489853843	489853843	147
5.540892	-0.027466	0.024353	-0.015381	0	0.9968910	0.0049152	-0.0000477	0	1.00110793	0.01010227	-0.00033641	0	33	506	-1460587766	-1460587766	147
5.540903	-0.026245	-0.000061	-0.017212	0	0.9972897	0.0045071	0.0005360	0	1.00077653	0.00990415	-0.00023007	0	49	506	1958436554	1958436554	147
5.540924	-0.026245	-0.018066	-0.024292	0	0.9975319	0.0046120	0.0008392	0	1.00048566	0.00991559	0.00027347	0	65	506	249907559	249907559	147
5.564869	-0.024414	0.004395	-0.030273	0	0.9971790	0.0053921	0.0005703	0	0.99991250	0.00948358	0.00036788	0	81	506	1998907514	1998907514	147
5.564924	-0.024353	0.012451	-0.035583	0	0.9971924	0.0063076	0.0002499	0	0.99932432	0.00859904	-0.00000763	0	97	506	430665328	430665328	147
5.564934	-0.018555	-0.023193	-0.031677	0	0.9975872	0.0066566	0.0001221	0	0.99943137	0.00831747	0.00004458	0	113	507	-1835189535	-1835189535	147
5.588845	-0.000671	-0.048645	-0.018311	0	0.9976044	0.0062847	-0.0002117	0	0.99961686	0.00890350	0.00025105	0	129	507	-310704072	-310704072	147
5.588899	0.011658	-0.040222	-0.010437	0	0.9974098	0.0056267	-0.0006161	0	0.99939489	0.00969338	-0.00033212	0	145	507	-683305434	-683305434	147
5.588908	0.006104	-0.029236	-0.010803	0	0.9972000	0.0052471	-0.0007610	0	0.99954104	0.01042771	-0.00100231	0	161	507	230282095	230282095	147
5.652840	-0.001831	-0.028320	-0.018433	0	0.9969425	0.0054703	-0.0007324	0	1.00019693	0.01098084	-0.00054717	0	177	506	1906969916	1906969916	147
5.652853	-0.002747	-0.024353	-0.026306	0	0.9972515	0.0059681	-0.0004292	0	1.00046372	0.01108909	0.00047660	0	193	506	-2134112449	-2134112449	147
5.652915	-0.002563	-0.011292	-0.021118	0	0.9977074	0.0061569	0.0003414	0	1.00006676	0.01064205	0.00077248	0	209	506	1926979092	1926979092	147
5.652925	-0.004333	0.016724	-0.011414	0	0.9973831	0.0059776	0.0009632	0	0.99944592	0.00992227	0.00011897	0	225	506	-954112758	-954112758	147
5.652934	-0.008301	0.041321	-0.010376	0	0.9969406	0.0057411	0.0008354	0	0.99885178	0.00954366	-0.00073600	0	241	506	-834094885	-834094885	147
5.652944	-0.013000	0.024597	-0.015808	0	0.9968796	0.0056400	0.0001926	0	0.99855185	0.00970697	-0.00100017	0	1	506	-312065846	-312065846	147
5.652983	-0.013916	-0.012817	-0.023865	0	0.9965992	0.0055828	-0.0005054	0	0.99854612	0.01005650	-0.00048590	0	17	507	-750740256	-750740256	147
5.652992	-0.011292	-0.022034	-0.033508	0	0.9961376	0.0053825	-0.0008583	0	0.99828577	0.01037526	0.00034332	0	33	507	-2047642363	-2047642363	147
5.701785	-0.008606	-0.021667	-0.041992	0	0.9964161	0.0051117	-0.0007706	0	0.99773335	0.01057506	0.00078821	0	49	507	616894747	616894747	147
5.701836	-0.006714	-0.043701	-0.039490	0	0.9973087	0.0049763	-0.0006180	0	0.99765801	0.01051188	0.00105786	0	65	507	-466179511	-466179511	147
5.701846	-0.010254	-0.044922	-0.026733	0	0.9976025	0.0049076	-0.0003796	0	0.99848938	0.01034880	0.00149536	0	81	506	938931383	938931383	147
5.701855	-0.019775	-0.005005	-0.017395	0	0.9972897	0.0051384	0.0002995	0	0.99949527	0.01027799	0.00117326	0	97	506	-826641420	-826641420	147
5.701865	-0.026794	0.008972	-0.013733	0	0.9973965	0.0057831	0.0009689	0	0.99989176	0.01026297	0.00023699	0	113	506	-1057307288	-1057307288	147
5.701904	-0.028748	-0.018799	-0.017944	0	0.9980774	0.0062141	0.0008221	0	1.00012493	0.01054239	0.00018978	0	129	506	240715630	240715630	147
5.765762	-0.023010	-0.032104	-0.028931	0	0.9985027	0.0062542	0.0001125	0	1.00066376	0.01122332	0.00087166	0	145	506	-888103299	-888103299	147
5.765775	-0.007507	-0.020996	-0.031067	0	0.9980526	0.0061932	-0.0002823	0	1.00105548	0.01144028	0.00128078	0	161	506	-1530578246	-1530578246	147
5.765829	0.005737	-0.001953	-0.021606	0	0.9971333	0.0060234	-0.0003128	0	1.00095749	0.01069093	0.00143838	0	177	507	228788459	228788459	147
5.765838	0.009949	0.023865	-0.011719	0	0.9967728	0.0054913	-0.0002460	0	1.00055814	0.01000571	0.00133395	0	193	507	-1941474826	-1941474826	147
5.765848	0.006409	0.029541	-0.008057	0	0.9973354	0.0047092	0.0001163	0	1.00001454	0.01000428	0.00080204	0	209	507	458822494	458822494	147
5.765857	-0.006958	0.001343	-0.010132	0	0.9978371	0.0044594	0.0005035	0	0.99911523	0.01008558	0.00029874	0	225	507	221874136	221874136	147
5.765895	-0.022766	-0.009338	-0.008179	0	0.9974766	0.0048809	0.0003490	0	0.99823380	0.00992584	0.00002599	0	241	506	531326501	531326501	147
5.765905	-0.032837	0.018311	-0.004089	0	0.9973145	0.0052967	-0.0002060	0	0.99842620	0.00968695	-0.00020146	0	1	506	1514308277	1514308277	147
5.805668	-0.036560	0.031311	-0.010681	0	0.9980164	0.0054474	-0.0006294	0	0.99936295	0.00960231	-0.00020218	0	17	506	261821855	261821855	147
5.805679	-0.028931	0.013184	-0.021179	0	0.9985027	0.0055408	-0.0007133	0	0.99997044	0.00972700	0.00016665	0	33	506	-1822420338	-1822420338	147
5.805734	-0.014954	-0.003540	-0.023682	0	0.9985981	0.0057659	-0.0006142	0	1.00022697	0.00972414	0.00071144	0	49	506	448436403	448436403	147
5.805743	-0.010132	-0.012451	-0.019836	0	0.9987659	0.0060635	-0.0005379	0	1.00008821	0.00953245	0.00121832	0	65	507	-1030474236	-1030474236	147
5.805753	-0.011169	-0.019775	-0.017883	0	0.9987602	0.0060387	-0.0003643	0	0.99934077	0.00951552	0.00151372	0	81	507	2060917625	2060917625	147
5.829630	-0.010376	-0.017883	-0.020630	0	0.9985256	0.0055199	0.0000801	0	0.99873590	0.00975442	0.00142002	0	97	507	1522324689	1522324689	147
5.829641	-0.019836	-0.014465	-0.020569	0	0.9982090	0.0049858	0.0004330	0	0.99890709	0.01010609	0.00108957	0	113	507	551044581	551044581	147
5.829650	-0.034790	-0.023987	-0.018311	0	0.9978943	0.0047894	0.0002975	0	0.99933410	0.01019597	0.00087881	0	129	507	429226463	429226463	147
5.853611	-0.031677	-0.024231	-0.021179	0	0.9976120	0.0047054	-0.0002232	0	0.99941015	0.00975657	0.00075507	0	145	507	-128180433	-128180433	147
5.853668	-0.016296	0.002014	-0.021545	0	0.9974537	0.0046616	-0.0006771	0	0.99910212	0.00954485	0.00065994	0	161	506	-850269391	-850269391	147
5.853677	-0.007996	0.022766	-0.016357	0	0.9975948	0.0049095	-0.0007954	0	0.99875402	0.01021194	0.00088763	0	177	506	35653639	35653639	147
5.877607	-0.002808	0.014709	-0.021484	0	0.9977188	0.0053482	-0.0006218	0	0.99876714	0.01091576	0.00113201	0	193	506	1214782670	1214782670	147
5.877616	0.005859	-0.008118	-0.033325	0	0.9973240	0.0055618	-0.0001869	0	0.99918842	0.01060510	0.00084734	0	209	506	2142039832	2142039832	147
5.877669	0.010498	-0.028198	-0.028809	0	0.9967270	0.0056210	0.0000267	0	0.99973989	0.00969625	0.00063324	0	225	506	1685008208	1685008208	147
5.901583	0.007996	-0.025208	-0.011414	0	0.9966469	0.0058632	-0.0003014	0	1.00029588	0.00917315	0.00090623	0	241	506	-768314449	-768314449	147
5.901594	0.006531	-0.003296	-0.004150	0	0.9972153	0.0060368	-0.0003586	0	1.00082493	0.00915217	0.00102830	0	1	507	302004049	302004049	147
5.901642	0.010437	0.003418	-0.011047	0	0.9979630	0.0058346	0.0000744	0	1.00108218	0.00942945	0.00075555	0	17	507	-1846807736	-1846807736	147
5.925569	0.008545	-0.001160	-0.016052	0	0.9982319	0.0054951	0.0000534	0	1.00096059	0.00990200	0.00046730	0	33	507	1121662978	1121662978	147
5.925581	-0.003540	0.003601	-0.011780	0	0.9978809	0.0052280	-0.0005207	0	1.00052500	0.01011324	0.00039172	0	49	507	502376541	502376541	147
5.925591	-0.019348	0.000732	-0.012207	0	0.9975376	0.0050011	-0.0007458	0	1.00003266	0.00973868	0.00029159	0	65	506	186856383	186856383	147
5.949553	-0.031738	-0.015930	-0.028503	0	0.9975586	0.0048161	-0.0003338	0	0.99987698	0.00927949	-0.00014663	0	81	506	-935591096	-935591096	147
5.949568	-0.027893	-0.017273	-0.048218	0	0.9976540	0.0049648	-0.0001431	0	0.99985003	0.00926757	-0.00062990	0	97	506	-731235721	-731235721	147
5.949578	-0.012451	0.004639	-0.052063	0	0.9976978	0.0056667	-0.0005112	0	0.99952102	0.00950527	-0.00066805	0	113	506	752029043	752029043	147
5.973509	-0.004028	0.018799	-0.040344	0	0.9978695	0.0062695	-0.0005169	0	0.99924302	0.00969338	-0.00044179	0	129	506	-607071755	-607071755	147
5.973572	-0.004089	0.012329	-0.029358	0	0.9981308	0.0061302	-0.0000744	0	0.99928665	0.00972223	-0.00045753	0	145	507	-1525189328	-1525189328	147
5.973581	-0.002930	0.003113	-0.031555	0	0.9981956	0.0056324	-0.0000172	0	0.99936509	0.00943780	-0.00063181	0	161	507	2133203312	2133203312	147
5.997485	-0.002563	-0.003235	-0.041809	0	0.9978027	0.0053368	-0.0002785	0	0.99988961	0.00898647	-0.00048065	0	177	507	213320599	213320599	147
5.997535	-0.012634	-0.000610	-0.043762	0	0.9971485	0.0053310	-0.0003471	0	1.00087881	0.00877070	-0.00025392	0	193	507	-103748115	-103748115	147
5.997545	-0.024048	0.009033	-0.036011	0	0.9968109	0.0053978	-0.0000706	0	1.00138593	0.00882959	-0.00027394	0	209	507	-426555500	-426555500	147
6.021484	-0.018555	0.000549	-0.027649	0	0.9967518	0.0052242	0.0003338	0	1.00158644	0.00889349	-0.00008392	0	225	506	-1010753575	-1010753575	147
6.021496	-0.005859	-0.017090	-0.023560	0	0.9963150	0.0049782	0.0004444	0	1.00202918	0.00888491	0.00019097	0	241	506	-2115910996	-2115910996	147
6.021554	-0.006042	-0.020325	-0.025940	0	0.9956722	0.0050907	0.0001755	0	1.00202084	0.00885415	0.00017309	0	1	506	154220487	154220487	147
6.045456	-0.011353	-0.022034	-0.032959	0	0.9956703	0.0053177	-0.0002060	0	1.00113726	0.00879526	0.00026393	0	17	506	274442746	274442746	147
6.045467	-0.014771	-0.021912	-0.037720	0	0.9962158	0.0052986	-0.0005646	0	1.00014663	0.00867105	0.00067830	0	33	506	-466344668	-466344668	147
6.045520	-0.024048	-0.003174	-0.031921	0	0.9964333	0.0051651	-0.0008221	0	0.99960423	0.00845695	0.00115490	0	49	506	-760919727	-760919727	147
6.069468	-0.034119	0.013123	-0.023865	0	0.9964275	0.0049934	-0.0008087	0	0.99939203	0.00839520	0.00141025	0	65	507	-406883598	-406883598	147
6.069478	-0.033203	-0.001160	-0.022156	0	0.9968567	0.0048866	-0.0005760	0	0.99954152	0.00860620	0.00130200	0	81	507	-305185013	-305185013	147
6.069488	-0.015442	-0.023010	-0.018982	0	0.9976349	0.0050373	-0.0004292	0	1.00003004	0.00887918	0.00107861	0	97	507	1729096731	1729096731	147
6.093433	0.001526	-0.012756	-0.022095	0	0.9984360	0.0055790	-0.0005283	0	1.00037599	0.00927091	0.00091410	0	113	507	-1413915608	-1413915608	147
6.093443	-0.005493	0.028076	-0.033630	0	0.9986057	0.0064068	-0.0005302	0	1.00031495	0.00990367	0.00054312	0	129	506	524391999	524391999	147
6.093453	-0.020691	0.061096	-0.036072	0	0.9978390	0.0070305	-0.0001011	0	0.99983525	0.01080847	0.00006676	0	145	506	-1617191449	-1617191449	147
6.117409	-0.024231	0.049377	-0.029663	0	0.9969578	0.0073166	0.0002728	0	0.99895573	0.01193953	-0.00012922	0	161	506	-66115539	-66115539	147
6.117466	-0.024475	-0.001892	-0.023376	0	0.9965096	0.0072155	-0.0000381	0	0.99834728	0.01268363	-0.00009823	0	177	506	1651156589	1651156589	147
6.117475	-0.025574	-0.041870	-0.021790	0	0.9965000	0.0061703	-0.0006809	0	0.99859595	0.01243162	-0.00008202	0	193	506	-953777189	-953777189	147
6.141374	-0.021545	-0.033813	-0.025696	0	0.9969578	0.0045033	-0.0008926	0	0.99920106	0.01121998	-0.00022149	0	209	506	1002913290	1002913290	147
6.141433	-0.017456	0.008606	-0.027405	0	0.9974270	0.0034580	-0.0006084	0	0.99975872	0.00949693	-0.00029778	0	225	506	-1839966313	-1839966313	147
6.141443	-0.023010	0.050659	-0.025269	0	0.9973431	0.0036602	-0.0001183	0	1.00031376	0.00799727	0.00001860	0	241	507	-2033097929	-2033097929	147
6.165357	-0.030579	0.058472	-0.027222	0	0.9969463	0.0049000	0.0003586	0	1.00059414	0.00731325	0.00060916	0	1	507	948519651	948519651	147
6.165367	-0.029114	0.031677	-0.036987	0	0.9964867	0.0063953	0.0004959	0	1.00055814	0.00763392	0.00132823	0	17	507	-1809242009	-1809242009	147
6.165420	-0.024231	0.007751	-0.043823	0	0.9958115	0.0073338	0.0002537	0	1.00029302	0.00877094	0.00205469	0	33	506	1267208257	1267208257	147
6.189357	-0.020325	-0.000366	-0.037720	0	0.9955978	0.0073662	-0.0000134	0	0.99987578	0.00990272	0.00231171	0	49	506	1911733020	1911733020	147
6.189367	-0.013306	-0.014099	-0.025635	0	0.9966755	0.0064774	-0.0003319	0	0.99975371	0.01021671	0.00201297	0	65	506	1701209722	1701209722	147
6.189415	-0.008606	-0.041443	-0.014404	0	0.9982166	0.0052967	-0.0009556	0	1.00002122	0.00973415	0.00146055	0	81	506	-1899994141	-1899994141	147
6.213308	-0.010254	-0.054810	-0.008057	0	0.9988060	0.0047321	-0.0014572	0	1.00062108	0.00903583	0.00065279	0	97	506	1831732046	1831732046	147
6.213318	-0.009583	-0.032166	-0.011230	0	0.9984856	0.0049515	-0.0011654	0	1.00140905	0.00872350	0.00001693	0	113	506	1551035384	1551035384	147
6.213328	-0.003601	0.006042	-0.013672	0	0.9979763	0.0057621	-0.0002098	0	1.00156546	0.00922871	0.00004292	0	129	506	-1610362360	-1610362360	147
6.237307	-0.001770	0.024597	-0.008972	0	0.9973793	0.0066586	0.0005951	0	1.00091767	0.01065063	0.00032473	0	145	507	697954144	697954144	147
6.237318	-0.010986	0.026672	-0.006714	0	0.9965343	0.0068207	0.0007668	0	1.00029397	0.01207304	0.00046682	0	161	507	-2143771415	-2143771415	147
6.237327	-0.022461	0.036560	-0.010132	0	0.9957104	0.0060482	0.0004292	0	0.99981451	0.01235390	0.00029564	0	177	507	-1185656921	-1185656921	147
6.261283	-0.023560	0.028503	-0.016113	0	0.9959106	0.0050621	-0.0002079	0	0.99912667	0.01163912	-0.00024772	0	193	507	1352851257	1352851257	147
6.261336	-0.016602	-0.007202	-0.020325	0	0.9972267	0.0046844	-0.0008011	0	0.99889731	0.01043963	-0.00044870	0	209	506	-1019209991	-1019209991	147
6.261345	-0.013367	-0.009460	-0.017822	0	0.9980335	0.0048561	-0.0008469	0	0.99946380	0.00914454	0.00006795	0	225	506	1516948001	1516948001	147
6.285261	-0.015320	0.035889	-0.012695	0	0.9975910	0.0049381	-0.0004387	0	0.99975562	0.00846124	0.00050139	0	241	506	-2012656935	-2012656935	147
6.285316	-0.014648	0.061157	-0.013184	0	0.9967270	0.0049381	-0.0002041	0	0.99942183	0.00860405	0.00058794	0	1	506	1092056340	1092056340	147
6.285325	-0.011597	0.026855	-0.018799	0	0.9963379	0.0051174	-0.0000877	0	0.99920416	0.00915670	0.00087500	0	17	506	-1366364238	-1366364238	147
6.309233	-0.015259	-0.028015	-0.024841	0	0.9970608	0.0053329	0.0002441	0	0.99926066	0.00965428	0.00120330	0	33	506	64202354	64202354	147
6.309244	-0.025635	-0.048401	-0.030640	0	0.9984169	0.0055923	0.0002995	0	0.99955559	0.00977254	0.00095367	0	49	507	-1059351997	-1059351997	147
6.309301	-0.030212	-0.021545	-0.032410	0	0.9988823	0.0060158	-0.0002384	0	1.00037003	0.00956535	0.00031185	0	65	507	-991585847	-991585847	147
6.333192	-0.020020	0.018372	-0.025146	0	0.9983082	0.0064754	-0.0008106	0	1.00123143	0.00928307	0.00002289	0	81	507	397056969	397056969	147
6.333202	-0.003540	0.033936	-0.014832	0	0.9979687	0.0066433	-0.0009460	0	1.00131035	0.00899076	0.00020218	0	97	507	1705398479	1705398479	147
6.333239	0.006042	0.028442	-0.017639	0	0.9980412	0.0063648	-0.0007915	0	1.00077868	0.00892735	0.00052094	0	113	506	-615294283	-615294283	147
6.357182	0.007751	0.025269	-0.030945	0	0.9978542	0.0060196	-0.0005569	0	1.00027204	0.00909400	0.00082970	0	129	506	401599678	401599678	147
6.357192	0.002258	0.027954	-0.031738	0	0.9975834	0.0059834	-0.0000229	0	0.99998808	0.00881290	0.00092626	0	145	506	-586742296	-586742296	147
6.357202	-0.008423	0.032288	-0.017944	0	0.9973736	0.0060501	0.0006580	0	0.99974966	0.00800657	0.00085759	0	161	506	1590194790	1590194790	147
6.381183	-0.015503	0.044861	-0.007751	0	0.9969692	0.0060596	0.0006332	0	0.99927115	0.00753069	0.00095081	0	177	506	151068553	151068553	147
6.381193	-0.018005	0.051575	-0.010803	0	0.9967289	0.0062771	-0.0001431	0	0.99879122	0.00782561	0.00109196	0	193	506	-199201401	-199201401	147
6.381203	-0.018494	0.040955	-0.022095	0	0.9970684	0.0064983	-0.0008125	0	0.99888635	0.00857258	0.00101614	0	209	507	-1571175859	-1571175859	147
6.405157	-0.018616	0.039124	-0.026733	0	0.9974022	0.0063381	-0.0008430	0	0.99918056	0.00925398	0.00072932	0	225	507	-1867697771	-1867697771	147
6.405213	-0.022888	0.039795	-0.023315	0	0.9971294	0.0062218	-0.0003490	0	0.99910641	0.00959206	0.00038838	0	241	507	1322800720	1322800720	147
6.405222	-0.024475	0.007019	-0.022522	0	0.9969082	0.0063763	0.0002899	0	0.99917173	0.00962853	0.00013375	0	1	506	-1396811773	-1396811773	147
6.429131	-0.019714	-0.033081	-0.025696	0	0.9970531	0.0061569	0.0007401	0	0.99958658	0.00918126	0.00001931	0	17	506	542124050	542124050	147
6.429179	-0.022522	-0.033264	-0.033203	0	0.9971504	0.0054131	0.0007286	0	0.99965549	0.00838208	0.00023246	0	33	506	5022132	5022132	147
6.429188	-0.029236	-0.021179	-0.039673	0	0.9974804	0.0047131	0.0004463	0	0.99953485	0.00801253	0.00066710	0	49	506	1496819476	1496819476	147
6.453117	-0.021667	-0.029724	-0.034607	0	0.9977036	0.0045185	0.0003319	0	0.99999833	0.00840259	0.00091505	0	65	506	208432796	208432796	147
6.453130	-0.010986	-0.028503	-0.025879	0	0.9971848	0.0050125	0.0000591	0	1.00068784	0.00942135	0.00083780	0	81	506	-661944380	-661944380	147
6.453188	-0.014221	-0.011597	-0.026978	0	0.9970074	0.0056896	-0.0006008	0	1.00100541	0.01064277	0.00033045	0	97	506	860621218	860621218	147
6.477112	-0.018555	0.004395	-0.032104	0	0.9976788	0.0058498	-0.0010147	0	1.00106263	0.01121235	-0.00017047	0	113	507	-252081808	-252081808	147
6.477122	-0.014404	0.037537	-0.026611	0	0.9978580	0.0055485	-0.0009346	0	1.00074553	0.01056314	-0.00013423	0	129	507	-1347675123	-1347675123	147
6.477170	-0.003418	0.071899	-0.010925	0	0.9973526	0.0051651	-0.0007534	0	0.99994516	0.00937867	-0.00022149	0	145	507	-1792351937	-1792351937	147
6.501091	0.013550	0.058533	0.000427	0	0.9971008	0.0049229	-0.0005264	0	0.99946332	0.00886893	-0.00064778	0	161	507	1431916708	1431916708	147
6.501101	0.025940	0.016541	0.000000	0	0.9971657	0.0048199	-0.0002728	0	0.99975300	0.00883842	-0.00060511	0	177	506	-320247893	-320247893	147
6.501111	0.027527	-0.003723	-0.005249	0	0.9972572	0.0048656	-0.0002651	0	0.99996495	0.00855613	-0.00014734	0	193	506	-613880078	-613880078	147
6.525060	0.018555	-0.008240	-0.008606	0	0.9973278	0.0051651	-0.0004635	0	0.99977994	0.00840259	0.00036025	0	209	506	968156940	968156940	147
6.525070	0.006531	-0.014709	-0.012024	0	0.9973679	0.0055141	-0.0006485	0	0.99968386	0.00886869	0.00098896	0	225	506	-1200399106	-1200399106	147
6.525080	0.004822	-0.012024	-0.016541	0	0.9975777	0.0058250	-0.0006065	0	0.99937296	0.00944400	0.00136065	0	241	506	415248355	415248355	147
6.549032	0.007874	-0.001282	-0.019531	0	0.9979706	0.0062637	-0.0001163	0	0.99883080	0.00947666	0.00101757	0	1	506	-740010974	-740010974	147
6.549087	0.011047	0.009155	-0.024597	0	0.9979973	0.0066109	0.0004215	0	0.99881315	0.00955582	0.00033140	0	17	507	617152347	617152347	147
6.549096	0.018555	0.015869	-0.030701	0	0.9976406	0.0065384	0.0003815	0	0.99901056	0.01051950	0.00003147	0	33	507	925240151	925240151	147
6.573008	0.017944	0.001221	-0.027649	0	0.9976349	0.0061588	0.0000515	0	0.99878359	0.01149011	0.00027442	0	49	507	-1900098226	-1900098226	147
6.573058	-0.002258	-0.023193	-0.020691	0	0.9977188	0.0055065	-0.0001831	0	0.99873686	0.01109576	0.00071907	0	65	507	800236445	800236445	147
6.573068	-0.027954	-0.011108	-0.017456	0	0.9972229	0.0046978	-0.0004005	0	0.99939156	0.00984764	0.00073481	0	81	506	51766637	51766637	147
6.596985	-0.034973	0.020325	-0.009766	0	0.9970970	0.0042858	-0.0003662	0	1.00023603	0.00920606	-0.00010777	0	97	506	1306179540	1306179540	147
6.596994	-0.023132	0.022949	0.003784	0	0.9977798	0.0045567	0.0000439	0	1.00083590	0.00948644	-0.00104761	0	113	506	547021073	547021073	147
6.597047	-0.009705	0.021057	0.012817	0	0.9979420	0.0051804	0.0002365	0	1.00100636	0.00983787	-0.00125337	0	129	506	814370151	814370151	147
6.620984	-0.008362	0.040222	0.008423	0	0.9972687	0.0055408	-0.0000839	0	1.00058961	0.00970387	-0.00091052	0	145	506	1471636698	1471636698	147
6.620995	-0.024231	0.050842	-0.005554	0	0.9967079	0.0055408	-0.0003471	0	1.00003886	0.00935793	-0.00016713	0	161	506	-1770434244	-1770434244	147
6.621005	-0.036743	0.038757	-0.019897	0	0.9967117	0.0057716	-0.0003338	0	0.99974942	0.00906897	0.00061369	0	177	507	-802519042	-802519042	147
6.644961	-0.026855	0.019043	-0.031372	0	0.9972916	0.0060902	-0.0004025	0	0.99939513	0.00900578	0.00060010	0	193	507	-1370278192	-1370278192	147
6.644971	-0.013611	-0.002747	-0.035461	0	0.9979229	0.0057240	-0.0006371	0	0.99890828	0.00909972	0.00019193	0	209	507	1452646981	1452646981	147
6.644981	-0.016785	-0.013367	-0.035034	0	0.9977188	0.0047321	-0.0010490	0	0.99875093	0.00883102	0.00030732	0	225	507	-1482038155	-1482038155	147
6.668943	-0.031372	-0.000793	-0.035828	0	0.9969559	0.0040550	-0.0014343	0	0.99900317	0.00823021	0.00043845	0	241	507	1362325268	1362325268	147
6.668955	-0.042175	0.003967	-0.040283	0	0.9968319	0.0043716	-0.0011463	0	0.99936676	0.00793266	-0.00004768	0	1	506	867211702	867211702	147
6.668965	-0.034851	-0.012939	-0.052002	0	0.9970493	0.0051613	-0.0003185	0	0.99960446	0.00803590	-0.00059247	0	17	506	2131456751	2131456751	147
6.692938	-0.016846	-0.014954	-0.056335	0	0.9966679	0.0058937	0.0001011	0	0.99938560	0.00835466	-0.00080085	0	33	506	905699782	905699782	147
6.693002	-0.007202	0.003601	-0.038940	0	0.9963818	0.0067272	-0.0001030	0	0.99877882	0.00893044	-0.00090384	0	49	506	645453836	645453836	147
6.693012	-0.003967	0.015686	-0.020874	0	0.9965477	0.0071125	-0.0002499	0	0.99842358	0.00948238	-0.00088763	0	65	506	-1254781433	-1254781433	147
6.716887	0.001404	0.019958	-0.023254	0	0.9964085	0.0063553	-0.0000610	0	0.99851179	0.00978780	-0.00065517	0	81	507	-1288514331	-1288514331	147
6.716938	0.003479	0.018921	-0.032349	0	0.9964790	0.0052338	0.0000172	0	0.99887037	0.01009202	-0.00025129	0	97	507	1116998911	1116998911	147
6.716947	0.000488	0.006836	-0.028564	0	0.9973202	0.0046825	-0.0001469	0	0.99942994	0.01036739	-0.00005269	0	113	507	414385714	414385714	147
6.740860	-0.004028	0.006042	-0.013855	0	0.9978104	0.0045471	-0.0002365	0	0.99978399	0.01034546	-0.00022578	0	129	507	1062587874	1062587874	147
6.740872	-0.017578	0.021179	-0.002686	0	0.9974728	0.0046635	-0.0004406	0	0.99952793	0.00989485	-0.00015020	0	145	507	307496682	307496682	147
6.740935	-0.029358	0.016052	-0.005554	0	0.9972267	0.0049858	-0.0009708	0	0.99902868	0.00931263	0.00014758	0	161	506	-374196048	-374196048	147
6.764860	-0.019714	-0.001831	-0.018250	0	0.9973030	0.0051804	-0.0012646	0	0.99896359	0.00932527	0.00014949	0	177	506	191946290	191946290	147
6.764870	-0.006042	-0.001526	-0.022644	0	0.9972935	0.0051327	-0.0008240	0	0.99918222	0.00977850	-0.00007319	0	193	506	1497197872	1497197872	147
6.764880	-0.003357	-0.000488	-0.014648	0	0.9972305	0.0050335	-0.0003071	0	0.99914432	0.00969148	-0.00044608	0	209	506	1085144944	1085144944	147
6.828823	0.000732	-0.006470	-0.015930	0	0.9973717	0.0050831	-0.0004845	0	0.99899554	0.00906777	-0.00069928	0	225	506	-1800543035	-1800543035	147
