T[s]	GYRO_X	GYRO_Y	GYRO_Z	GyroSts	ACC_X	ACC_Y	ACC_Z	AccSts	INC_X	INC_Y	INC_Z	IncSts	Counter	Latency	RxCRC	CalCRC	DG_ID	
0.080558	-0.038940	0.018677	0.006165	0	0.0123634	0.0031013	0.9858532	0	0.01453137	-0.00089812	0.99838281	0	164	506	1937047222	1937047222	147
0.080584	-0.039124	0.011963	0.010376	0	0.0122490	0.0032082	0.9870224	0	0.01450324	-0.00085568	0.99879575	0	180	506	-90762045	-90762045	147
0.104494	-0.043335	0.012268	0.020813	0	0.0114880	0.0027695	0.9884624	0	0.01397038	-0.00106955	0.99979758	0	196	506	1850592626	1850592626	147
0.104663	-0.040710	0.015442	0.037354	0	0.0096855	0.0020771	0.9884586	0	0.01255465	-0.00139165	1.00053692	0	212	506	-256908900	-256908900	147
0.104678	-0.037292	0.013489	0.057312	0	0.0073414	0.0016117	0.9872150	0	0.01034522	-0.00145197	1.00090027	0	228	506	1936141927	1936141927	147
0.128471	-0.039185	0.017456	0.075378	0	0.0058079	0.0017834	0.9866276	0	0.00851488	-0.00139713	1.00109339	0	244	506	1624164268	1624164268	147
0.128491	-0.048340	0.035583	0.087646	0	0.0058136	0.0026951	0.9875450	0	0.00789118	-0.00132918	1.00120378	0	4	507	161908113	161908113	147
0.128827	-0.061829	0.049316	0.085266	0	0.0070553	0.0037727	0.9885139	0	0.00801516	-0.00116611	1.00145745	0	20	506	-964120230	-964120230	147
0.152375	-0.074219	0.044739	0.064758	0	0.0091000	0.0042305	0.9881420	0	0.00865126	-0.00099993	1.00161481	0	36	507	-1164099356	-1164099356	147
0.152399	-0.082825	0.034241	0.042969	0	0.0114079	0.0040092	0.9872417	0	0.01013923	-0.00076938	1.00123739	0	52	507	1207232478	1207232478	147
0.152412	-0.085144	0.028198	0.031189	0	0.0131645	0.0039444	0.9870663	0	0.01245284	-0.00053120	1.00074124	0	68	507	-293656491	-293656491	147
0.176397	-0.078735	0.017029	0.023132	0	0.0139599	0.0041466	0.9871407	0	0.01491094	-0.00053930	1.00051284	0	84	506	-1790436038	-1790436038	147
0.176419	-0.068970	-0.002197	0.018433	0	0.0137882	0.0038948	0.9866791	0	0.01631093	-0.00082469	1.00029731	0	100	506	-680941143	-680941143	147
0.176431	-0.066711	-0.009644	0.025391	0	0.0128822	0.0031185	0.9861507	0	0.01613927	-0.00115561	0.99992704	0	116	506	-1862463968	-1862463968	147
0.265274	-0.068481	0.007141	0.042725	0	0.0116653	0.0022297	0.9863186	0	0.01516771	-0.00145316	0.99924850	0	132	506	-471763246	-471763246	147
0.265306	-0.063843	0.030762	0.054688	0	0.0101604	0.0016785	0.9874363	0	0.01396298	-0.00201106	0.99853301	0	148	506	1647244986	1647244986	147
0.265326	-0.059570	0.037415	0.050964	0	0.0084629	0.0015182	0.9886208	0	0.01218629	-0.00277734	0.99858093	0	164	506	-619323811	-619323811	147
0.265344	-0.065796	0.029297	0.039917	0	0.0071373	0.0012703	0.9886570	0	0.01003051	-0.00320530	0.99939227	0	180	506	356161186	356161186	147
0.265410	-0.075928	0.023010	0.032959	0	0.0064106	0.0010147	0.9879189	0	0.00857139	-0.00311637	1.00029063	0	196	507	1933611908	1933611908	147
0.265428	-0.073486	0.015686	0.031433	0	0.0061741	0.0012035	0.9873734	0	0.00818563	-0.00291681	1.00095892	0	212	507	-969497577	-969497577	147
0.265446	-0.056641	0.002991	0.031494	0	0.0066147	0.0019417	0.9871616	0	0.00836301	-0.00278211	1.00144982	0	228	506	1724903941	1724903941	147
0.265491	-0.040039	0.003967	0.030212	0	0.0080070	0.0029907	0.9872055	0	0.00903797	-0.00231242	1.00183439	0	244	506	1976164385	1976164385	147
0.265509	-0.033875	0.023315	0.028992	0	0.0101185	0.0038261	0.9873219	0	0.01051784	-0.00161219	1.00188732	0	4	506	332138289	332138289	147
0.265527	-0.034180	0.035828	0.031372	0	0.0122032	0.0040970	0.9871559	0	0.01231360	-0.00127006	1.00144696	0	20	506	347062868	347062868	147
0.265545	-0.035339	0.027222	0.032837	0	0.0135365	0.0040302	0.9868526	0	0.01361036	-0.00133562	1.00112557	0	36	506	-1013016130	-1013016130	147
0.289257	-0.042969	0.008118	0.030518	0	0.0137329	0.0041409	0.9866829	0	0.01439977	-0.00161672	1.00133467	0	52	506	-1215138598	-1215138598	147
0.289280	-0.055847	-0.006104	0.033997	0	0.0127125	0.0044670	0.9866199	0	0.01461458	-0.00181365	1.00131273	0	68	506	825155333	825155333	147
0.289293	-0.060547	-0.010559	0.046204	0	0.0108662	0.0044651	0.9868145	0	0.01378584	-0.00160551	1.00074339	0	84	506	-1569010178	-1569010178	147
0.313281	-0.047546	-0.007996	0.061462	0	0.0088940	0.0038376	0.9873199	0	0.01231074	-0.00128460	1.00051332	0	100	507	1826313707	1826313707	147
0.313406	-0.026428	-0.001892	0.081238	0	0.0072727	0.0030022	0.9881496	0	0.01106954	-0.00135493	1.00106859	0	116	507	84522576	84522576	147
0.313425	-0.028381	0.002747	0.096252	0	0.0062466	0.0023365	0.9889812	0	0.01019669	-0.00168753	1.00180101	0	132	506	1024599813	1024599813	147
0.337178	-0.056763	0.004639	0.087769	0	0.0059814	0.0020218	0.9888935	0	0.00942755	-0.00168467	1.00201201	0	148	506	-106558278	-106558278	147
0.337243	-0.078613	0.009216	0.067871	0	0.0066528	0.0023422	0.9878845	0	0.00898719	-0.00132489	1.00164771	0	164	506	-1040816285	-1040816285	147
0.337256	-0.078918	0.015198	0.054321	0	0.0083237	0.0029507	0.9868431	0	0.00943184	-0.00115609	1.00111461	0	180	506	308668017	308668017	147
0.361156	-0.064453	0.019775	0.038025	0	0.0105190	0.0031834	0.9863396	0	0.01073003	-0.00109744	1.00084496	0	196	506	-210942680	-210942680	147
0.361188	-0.052917	0.027710	0.012817	0	0.0125256	0.0030136	0.9865723	0	0.01259708	-0.00080633	1.00077820	0	212	506	1783737460	1783737460	147
0.361252	-0.054688	0.035645	-0.010620	0	0.0138226	0.0026207	0.9871578	0	0.01481462	-0.00069308	1.00039840	0	228	507	1950569083	1950569083	147
0.385140	-0.058472	0.036987	-0.015564	0	0.0141201	0.0021915	0.9874268	0	0.01632524	-0.00090408	0.99972272	0	244	507	239836400	239836400	147
0.385169	-0.060547	0.029419	0.002625	0	0.0131302	0.0019474	0.9873543	0	0.01641059	-0.00107908	0.99924707	0	4	507	-1715076964	-1715076964	147
0.385182	-0.064758	0.013733	0.030334	0	0.0108643	0.0019398	0.9872494	0	0.01566696	-0.00156474	0.99924827	0	20	507	587688146	587688146	147
0.409100	-0.059387	0.002075	0.051147	0	0.0082684	0.0020409	0.9870701	0	0.01439643	-0.00244117	0.99976993	0	36	506	-468087953	-468087953	147
0.409130	-0.040222	0.001709	0.061157	0	0.0061989	0.0019894	0.9866924	0	0.01240683	-0.00281119	1.00041986	0	52	506	1278869012	1278869012	147
0.409149	-0.026123	0.006348	0.060425	0	0.0050068	0.0020008	0.9864807	0	0.00998092	-0.00241637	1.00058770	0	68	506	1656130355	1656130355	147
0.433127	-0.027405	0.010376	0.047363	0	0.0048714	0.0025883	0.9868126	0	0.00807118	-0.00186992	1.00028634	0	84	506	2095786052	2095786052	147
0.433162	-0.039551	0.012024	0.033997	0	0.0055141	0.0031757	0.9871769	0	0.00760937	-0.00149107	1.00015330	0	100	506	1860254763	1860254763	147
0.433178	-0.052246	0.013794	0.029724	0	0.0069351	0.0030880	0.9872112	0	0.00848770	-0.00114393	1.00052190	0	116	506	272262961	272262961	147
0.457127	-0.056946	0.014587	0.022278	0	0.0092125	0.0028629	0.9873543	0	0.00995827	-0.00084162	1.00082517	0	132	506	-971503617	-971503617	147
0.457180	-0.060913	0.009033	0.007568	0	0.0116444	0.0027790	0.9876423	0	0.01147103	-0.00073242	1.00061131	0	148	506	-1060339065	-1060339065	147
0.457192	-0.065125	-0.000916	-0.000671	0	0.0137558	0.0026112	0.9876060	0	0.01279092	-0.00071216	1.00036192	0	164	506	-1605789401	-1605789401	147
0.481015	-0.055420	-0.007446	0.007324	0	0.0150509	0.0025520	0.9871330	0	0.01377988	-0.00063515	1.00026226	0	180	507	-2014119808	-2014119808	147
0.481036	-0.035767	-0.005493	0.026306	0	0.0149136	0.0026035	0.9864883	0	0.01439929	-0.00035954	0.99999809	0	196	507	231791965	231791965	147
0.481085	-0.033691	0.001587	0.043091	0	0.0134449	0.0023746	0.9861031	0	0.01478124	-0.00002193	0.99974155	0	212	507	763316802	763316802	147
0.504982	-0.057190	0.006104	0.052734	0	0.0109062	0.0019512	0.9861641	0	0.01460719	-0.00036216	0.99981785	0	228	506	-653698288	-653698288	147
0.505004	-0.071960	0.002197	0.050903	0	0.0081100	0.0017529	0.9865437	0	0.01333547	-0.00139260	1.00038981	0	244	506	-1917654240	-1917654240	147
0.505051	-0.064331	-0.005432	0.040894	0	0.0063190	0.0018101	0.9872131	0	0.01131678	-0.00192761	1.00137544	0	4	506	-556730444	-556730444	147
0.528984	-0.059082	-0.000305	0.044800	0	0.0057354	0.0021458	0.9877033	0	0.00958419	-0.00143838	1.00230217	0	20	506	407661159	407661159	147
0.529012	-0.058533	0.016724	0.062073	0	0.0059376	0.0025101	0.9876518	0	0.00866199	-0.00064588	1.00283504	0	36	506	-170415774	-170415774	147
0.529027	-0.056091	0.025635	0.066711	0	0.0068188	0.0024376	0.9874363	0	0.00854826	-0.00022984	1.00295568	0	52	506	817520341	817520341	147
0.552967	-0.057007	0.022400	0.049683	0	0.0083351	0.0022240	0.9871063	0	0.00937366	-0.00038147	1.00244522	0	68	506	-1082345000	-1082345000	147
0.552990	-0.052307	0.018921	0.025818	0	0.0101967	0.0023651	0.9863892	0	0.01076674	-0.00091195	1.00130129	0	84	507	132190303	132190303	147
0.553002	-0.040894	0.018433	0.011658	0	0.0119667	0.0027828	0.9855881	0	0.01200819	-0.00113297	1.00042605	0	100	507	-517737826	-517737826	147
0.576901	-0.036682	0.020447	0.012939	0	0.0132008	0.0029850	0.9854126	0	0.01324821	-0.00077510	1.00048423	0	116	506	520885771	520885771	147
0.576970	-0.036743	0.028809	0.029724	0	0.0135021	0.0028038	0.9858284	0	0.01463795	-0.00044942	1.00095987	0	132	506	861546104	861546104	147
0.576987	-0.035583	0.033386	0.049927	0	0.0128155	0.0025253	0.9861794	0	0.01561499	-0.00054264	1.00117469	0	148	506	-1360064063	-1360064063	147
0.600855	-0.039307	0.022217	0.057068	0	0.0113621	0.0021782	0.9866180	0	0.01570678	-0.00081420	1.00127816	0	164	506	36574163	36574163	147
0.600938	-0.049866	0.007507	0.053345	0	0.0094166	0.0018387	0.9875259	0	0.01468873	-0.00102401	1.00173473	0	180	506	-1419499398	-1419499398	147
0.600952	-0.058960	0.005798	0.050781	0	0.0074406	0.0017796	0.9884453	0	0.01291966	-0.00124764	1.00232720	0	196	506	471461850	471461850	147
0.624862	-0.057678	0.019226	0.052185	0	0.0059013	0.0019493	0.9887695	0	0.01119113	-0.00170279	1.00253940	0	212	506	1071005009	1071005009	147
0.624892	-0.046692	0.035461	0.059998	0	0.0052795	0.0020638	0.9884586	0	0.00982690	-0.00223160	1.00233698	0	228	506	626325373	626325373	147
0.624965	-0.041504	0.035889	0.072449	0	0.0060787	0.0020065	0.9877911	0	0.00904465	-0.00229764	1.00209904	0	244	507	-1370238349	-1370238349	147
0.648832	-0.052612	0.023926	0.068726	0	0.0081272	0.0021458	0.9872437	0	0.00936866	-0.00184226	1.00211120	0	4	506	-544549444	-544549444	147
0.648852	-0.064636	0.020935	0.044189	0	0.0104542	0.0026302	0.9870834	0	0.01080728	-0.00124288	1.00213194	0	20	506	-1158939186	-1158939186	147
0.648897	-0.065308	0.029663	0.017273	0	0.0123348	0.0029278	0.9870396	0	0.01261973	-0.00078750	1.00182247	0	36	506	1886985707	1886985707	147
0.672800	-0.057922	0.035767	-0.000671	0	0.0135403	0.0028553	0.9870110	0	0.01413274	-0.00062943	1.00134420	0	52	506	-101481330	-101481330	147
0.672821	-0.050537	0.036194	-0.005432	0	0.0138416	0.0028343	0.9869862	0	0.01498199	-0.00061893	1.00094557	0	68	506	-1722151587	-1722151587	147
0.672833	-0.048096	0.038208	0.000366	0	0.0132885	0.0029049	0.9867744	0	0.01520300	-0.00069618	1.00058985	0	84	506	-1198694636	-1198694636	147
0.696784	-0.045532	0.038452	0.008728	0	0.0122547	0.0026016	0.9864063	0	0.01512504	-0.00113368	1.00039363	0	100	506	438001630	438001630	147
0.696808	-0.045715	0.023560	0.025146	0	0.0107403	0.0020237	0.9862614	0	0.01466346	-0.00176191	1.00050449	0	116	506	-697887843	-697887843	147
0.696821	-0.052429	-0.000061	0.054443	0	0.0085907	0.0017529	0.9864864	0	0.01343989	-0.00201130	1.00048852	0	132	507	-1370018820	-1370018820	147
0.720768	-0.058716	-0.006287	0.073730	0	0.0064678	0.0018940	0.9865379	0	0.01147795	-0.00191617	1.00001144	0	148	507	-1137005183	-1137005183	147
0.720829	-0.063232	0.004944	0.065674	0	0.0056057	0.0021477	0.9863453	0	0.00950575	-0.00195360	0.99977803	0	164	506	-1580122884	-1580122884	147
0.720842	-0.065552	0.014832	0.045410	0	0.0061283	0.0021057	0.9866180	0	0.00847626	-0.00194764	1.00034165	0	180	507	-2106391918	-2106391918	147
0.744721	-0.058411	0.019226	0.030701	0	0.0070591	0.0018196	0.9873142	0	0.00865126	-0.00143337	1.00097251	0	196	506	-1761341024	-1761341024	147
0.744783	-0.043091	0.019958	0.021912	0	0.0083065	0.0020905	0.9876747	0	0.00957036	-0.00074506	1.00099254	0	212	506	-1647442380	-1647442380	147
0.744796	-0.032471	0.016296	0.011658	0	0.0101185	0.0029583	0.9873581	0	0.01076293	-0.00029612	1.00053358	0	228	506	1867603400	1867603400	147
0.768696	-0.037292	0.013672	0.002014	0	0.0119953	0.0035019	0.9868736	0	0.01208115	0.00011659	0.99991226	0	244	506	1134347220	1134347220	147
0.768718	-0.050842	0.018311	0.000183	0	0.0135193	0.0035419	0.9868450	0	0.01347780	0.00044227	0.99950695	0	4	506	-218114418	-218114418	147
0.768816	-0.057556	0.021667	0.002136	0	0.0143089	0.0035343	0.9870300	0	0.01466060	0.00023508	0.99954844	0	20	506	294077258	294077258	147
0.792635	-0.055298	0.014099	0.005066	0	0.0139809	0.0033588	0.9872055	0	0.01508999	-0.00075674	0.99997616	0	36	507	298064929	298064929	147
0.792657	-0.052551	0.005615	0.016724	0	0.0125294	0.0029221	0.9874687	0	0.01442719	-0.00204182	1.00056124	0	52	507	-2025985151	-2025985151	147
0.792669	-0.055054	0.004028	0.037231	0	0.0103207	0.0026321	0.9876308	0	0.01308608	-0.00255203	1.00101376	0	68	507	2015415682	2015415682	147
0.816602	-0.053772	0.000061	0.053284	0	0.0080414	0.0024300	0.9877300	0	0.01170683	-0.00213957	1.00117493	0	84	507	-1901469847	-1901469847	147
0.816626	-0.040588	-0.006226	0.051453	0	0.0064068	0.0022507	0.9876022	0	0.01046729	-0.00168085	1.00099969	0	100	507	-1149537702	-1149537702	147
0.816638	-0.032593	-0.002563	0.038025	0	0.0060349	0.0024109	0.9870491	0	0.00969553	-0.00163174	1.00063396	0	116	506	-1581897622	-1581897622	147
0.840616	-0.039185	0.012756	0.035645	0	0.0069180	0.0026779	0.9868126	0	0.00968289	-0.00174093	1.00056219	0	132	506	-1039422012	-1039422012	147
0.840638	-0.046570	0.030884	0.045837	0	0.0082226	0.0026989	0.9873047	0	0.01010084	-0.00146914	1.00081682	0	148	506	-479852100	-479852100	147
0.840650	-0.052795	0.038147	0.047363	0	0.0096283	0.0027981	0.9876232	0	0.01070619	-0.00063515	1.00095439	0	164	506	726867963	726867963	147
0.864591	-0.059509	0.027100	0.033508	0	0.0113449	0.0031414	0.9869442	0	0.01152587	0.00008798	1.00100088	0	180	506	939720105	939720105	147
0.864649	-0.059082	0.004089	0.019592	0	0.0128632	0.0033665	0.9860649	0	0.01252794	0.00013995	1.00102162	0	196	506	-123726680	-123726680	147
0.864662	-0.053711	-0.016602	0.018555	0	0.0135021	0.0034199	0.9860344	0	0.01367474	-0.00029302	1.00103450	0	212	506	1308809693	1308809693	147
0.888543	-0.045288	-0.016541	0.025146	0	0.0131607	0.0034504	0.9864044	0	0.01472092	-0.00089169	1.00121880	0	228	506	570155552	570155552	147
0.888619	-0.033875	0.004333	0.032227	0	0.0120182	0.0033207	0.9864311	0	0.01523757	-0.00122046	1.00150990	0	244	507	-1491572391	-1491572391	147
0.888633	-0.031006	0.018677	0.042969	0	0.0102844	0.0028782	0.9863129	0	0.01462293	-0.00095773	1.00199533	0	4	507	1242160080	1242160080	147
0.912503	-0.045349	0.014465	0.052551	0	0.0082798	0.0024433	0.9866180	0	0.01263881	-0.00059628	1.00266361	0	20	506	-764916491	-764916491	147
0.912527	-0.062500	0.009766	0.058350	0	0.0065365	0.0024033	0.9870987	0	0.01016378	-0.00071740	1.00295162	0	36	506	1567205219	1567205219	147
0.912575	-0.061523	0.013489	0.066162	0	0.0055809	0.0025845	0.9873199	0	0.00834036	-0.00102687	1.00256610	0	52	506	-1006338575	-1006338575	147
0.936456	-0.049316	0.016357	0.072266	0	0.0056114	0.0028038	0.9875050	0	0.00773025	-0.00113177	1.00169706	0	68	506	2119524490	2119524490	147
0.936480	-0.046509	0.015015	0.072815	0	0.0066738	0.0029964	0.9874516	0	0.00813937	-0.00107145	1.00092363	0	84	506	-190169163	-190169163	147
0.936492	-0.054199	0.014648	0.063049	0	0.0086670	0.0030670	0.9869614	0	0.00907660	-0.00090361	1.00092745	0	100	506	-775188050	-775188050	147
0.960420	-0.060730	0.014099	0.042053	0	0.0108662	0.0030632	0.9866371	0	0.01075268	-0.00086379	1.00108504	0	116	506	-1267587460	-1267587460	147
0.960447	-0.060974	0.008728	0.031189	0	0.0126495	0.0028553	0.9866352	0	0.01310492	-0.00104284	1.00032735	0	132	507	-1736102421	-1736102421	147
0.960459	-0.055298	0.001953	0.039917	0	0.0139370	0.0026302	0.9865036	0	0.01487064	-0.00133085	0.99939394	0	148	506	-588369960	-588369960	147
0.984419	-0.047485	0.002686	0.046387	0	0.0141258	0.0028400	0.9862728	0	0.01543140	-0.00185370	0.99961114	0	164	507	1483489034	1483489034	147
0.984444	-0.049988	0.009644	0.046265	0	0.0129700	0.0030670	0.9862709	0	0.01550198	-0.00215364	1.00066066	0	180	506	10547578	10547578	147
0.984456	-0.063538	0.014465	0.053345	0	0.0113392	0.0027905	0.9863873	0	0.01541877	-0.00177526	1.00141215	0	196	506	1004289732	1004289732	147
1.008403	-0.072571	0.017761	0.062683	0	0.0095901	0.0023232	0.9864902	0	0.01452851	-0.00147176	1.00167203	0	212	506	647138804	647138804	147
1.008487	-0.078491	0.023315	0.066040	0	0.0078201	0.0021172	0.9869080	0	0.01238060	-0.00191045	1.00157595	0	228	506	-1103029066	-1103029066	147
1.008503	-0.084778	0.031189	0.064514	0	0.0066032	0.0020523	0.9876099	0	0.00977302	-0.00248861	1.00097895	0	244	506	961609316	961609316	147
1.032376	-0.081543	0.036316	0.062256	0	0.0061493	0.0018578	0.9878960	0	0.00802708	-0.00232387	1.00010777	0	4	507	1113177542	1113177542	147
1.032411	-0.076843	0.041138	0.057922	0	0.0066395	0.0019283	0.9873695	0	0.00774026	-0.00182509	0.99934840	0	20	506	1841511870	1841511870	147
1.032490	-0.082031	0.053589	0.044922	0	0.0081539	0.0025043	0.9865074	0	0.00850272	-0.00178337	0.99923444	0	36	507	188447281	188447281	147
1.056355	-0.084229	0.057068	0.023132	0	0.0100193	0.0032272	0.9862862	0	0.00953865	-0.00191808	0.99997330	0	52	507	795801704	795801704	147
1.056376	-0.070374	0.037415	0.000000	0	0.0115986	0.0037632	0.9866371	0	0.01071382	-0.00178528	1.00064325	0	68	506	-379693863	-379693863	147
1.056420	-0.052673	0.019165	-0.011902	0	0.0125427	0.0038109	0.9865742	0	0.01226711	-0.00120974	1.00066376	0	84	506	-815077692	-815077692	147
1.160280	-0.049866	0.021240	-0.003906	0	0.0129356	0.0034904	0.9864597	0	0.01393080	-0.00041080	1.00060391	0	100	506	2112313531	2112313531	147
1.160302	-0.056519	0.028503	0.011353	0	0.0129662	0.0031605	0.9869041	0	0.01524258	-0.00010991	1.00079036	0	116	506	751267104	751267104	147
1.160315	-0.055176	0.023865	0.019104	0	0.0121403	0.0027752	0.9871445	0	0.01571369	-0.00056219	1.00073075	0	132	506	299899746	299899746	147
1.160381	-0.044312	0.009155	0.022461	0	0.0102863	0.0024376	0.9870853	0	0.01497483	-0.00150394	1.00016046	0	148	506	1844739417	1844739417	147
1.160394	-0.038757	-0.002869	0.030090	0	0.0082893	0.0022850	0.9874115	0	0.01347613	-0.00250888	0.99990869	0	164	506	2002985759	2002985759	147
1.160406	-0.051880	-0.005493	0.044556	0	0.0071220	0.0022278	0.9879646	0	0.01172948	-0.00276351	1.00043559	0	180	506	-471892000	-471892000	147
1.160417	-0.072449	-0.006775	0.061218	0	0.0067749	0.0025387	0.9881248	0	0.00996447	-0.00204086	1.00081515	0	196	507	-1029643585	-1029643585	147
1.160452	-0.078735	-0.009827	0.072083	0	0.0068760	0.0032082	0.9877262	0	0.00880933	-0.00148535	1.00072289	0	212	507	1074407011	1074407011	147
1.160463	-0.071838	-0.000977	0.065491	0	0.0077229	0.0035477	0.9872341	0	0.00855803	-0.00177836	1.00065327	0	228	507	-2129316641	-2129316641	147
1.160475	-0.060059	0.019958	0.041992	0	0.0093727	0.0033455	0.9872551	0	0.00916219	-0.00214529	1.00039554	0	244	507	-1096077067	-1096077067	147
1.160504	-0.048157	0.034424	0.028748	0	0.0111580	0.0029659	0.9878025	0	0.01081562	-0.00204539	0.99964762	0	4	506	826127006	826127006	147
1.160516	-0.043579	0.036743	0.043030	0	0.0124912	0.0029392	0.9880924	0	0.01289058	-0.00175452	0.99872184	0	20	506	-958601429	-958601429	147
1.160528	-0.050720	0.030273	0.064087	0	0.0129509	0.0033245	0.9875870	0	0.01418805	-0.00138187	0.99807334	0	36	506	1466635346	1466635346	147
1.209191	-0.061157	0.019043	0.063354	0	0.0125771	0.0034161	0.9869347	0	0.01450610	-0.00085378	0.99804425	0	52	506	676161057	676161057	147
1.209268	-0.063843	0.017700	0.044495	0	0.0118961	0.0030651	0.9868736	0	0.01420760	-0.00043607	0.99868298	0	68	507	1112864902	1112864902	147
1.209281	-0.061035	0.028687	0.034241	0	0.0108280	0.0027580	0.9872150	0	0.01344967	-0.00042701	0.99942517	0	84	506	1950769086	1950769086	147
1.209294	-0.057190	0.029114	0.042419	0	0.0090122	0.0024319	0.9874115	0	0.01243401	-0.00082088	0.99981117	0	100	507	-1758834524	-1758834524	147
1.209306	-0.047241	0.011963	0.054504	0	0.0072842	0.0019531	0.9874191	0	0.01133013	-0.00160694	1.00010419	0	116	506	-1893448322	-1893448322	147
1.209341	-0.034973	-0.002808	0.057861	0	0.0065956	0.0016117	0.9876423	0	0.01002908	-0.00247931	1.00055623	0	132	507	1026609434	1026609434	147
1.233218	-0.032532	-0.005859	0.059265	0	0.0066490	0.0016289	0.9878273	0	0.00872922	-0.00261068	1.00097036	0	148	507	1825693851	1825693851	147
1.233292	-0.036011	-0.001892	0.064636	0	0.0071354	0.0018692	0.9872780	0	0.00832462	-0.00179362	1.00104570	0	164	506	1516299555	1516299555	147
1.233391	-0.046387	0.009827	0.063904	0	0.0083084	0.0021439	0.9863911	0	0.00931072	-0.00080681	1.00087953	0	180	506	846050368	846050368	147
1.257159	-0.065125	0.029602	0.053894	0	0.0100250	0.0025826	0.9862690	0	0.01092410	-0.00020409	1.00065279	0	196	506	-1979030837	-1979030837	147
1.257183	-0.072021	0.041992	0.043152	0	0.0117760	0.0030727	0.9868832	0	0.01230025	0.00029325	1.00037432	0	212	506	2104564225	2104564225	147
1.257198	-0.060791	0.035278	0.038269	0	0.0130367	0.0032558	0.9871979	0	0.01355672	0.00071073	1.00051045	0	228	506	2124968194	2124968194	147
1.281126	-0.049072	0.022095	0.039673	0	0.0133610	0.0032082	0.9870262	0	0.01476407	0.00031400	1.00101948	0	244	507	1903227384	1903227384	147
1.281146	-0.048767	0.013855	0.041382	0	0.0128517	0.0029697	0.9870358	0	0.01537824	-0.00065351	1.00086641	0	4	506	2105771497	2105771497	147
1.281159	-0.059143	0.004883	0.046692	0	0.0118484	0.0026531	0.9872341	0	0.01497936	-0.00114655	1.00000763	0	20	506	1412748545	1412748545	147
1.305115	-0.068298	-0.004822	0.063843	0	0.0103283	0.0025711	0.9872303	0	0.01364112	-0.00137067	0.99949574	0	36	507	-265578648	-265578648	147
1.305153	-0.066101	-0.004456	0.076599	0	0.0086327	0.0023365	0.9872971	0	0.01182556	-0.00204778	0.99983430	0	52	507	-567742133	-567742133	147
1.305171	-0.062927	0.009338	0.068970	0	0.0073376	0.0018101	0.9878197	0	0.01021671	-0.00291348	1.00077271	0	68	506	951190483	951190483	147
1.329128	-0.066589	0.023987	0.060486	0	0.0064335	0.0016632	0.9885063	0	0.00941563	-0.00330615	1.00174785	0	84	506	-1054405198	-1054405198	147
1.329184	-0.066895	0.025635	0.062561	0	0.0060616	0.0021076	0.9889393	0	0.00955868	-0.00300431	1.00236106	0	100	506	-780355328	-780355328	147
1.329197	-0.059692	0.016541	0.052307	0	0.0068188	0.0027561	0.9889297	0	0.01031017	-0.00231910	1.00285363	0	116	506	538081458	538081458	147
1.353046	-0.052185	0.012939	0.026917	0	0.0086212	0.0032043	0.9882832	0	0.01121640	-0.00161505	1.00323820	0	132	506	-1062822790	-1062822790	147
1.353067	-0.050232	0.020691	0.009155	0	0.0106297	0.0031929	0.9873314	0	0.01225781	-0.00079370	1.00298524	0	148	506	1667176629	1667176629	147
1.353115	-0.054138	0.027588	-0.000854	0	0.0123539	0.0028210	0.9870205	0	0.01351309	0.00023103	1.00230455	0	164	506	1147657006	1147657006	147
1.377019	-0.058105	0.029541	-0.012817	0	0.0136757	0.0026722	0.9873257	0	0.01455164	0.00120902	1.00193906	0	180	507	1909615135	1909615135	147
1.377038	-0.051086	0.032043	-0.016235	0	0.0142879	0.0029774	0.9872894	0	0.01492310	0.00179768	1.00204206	0	196	507	-1682541306	-1682541306	147
1.377083	-0.037842	0.029053	0.000610	0	0.0139332	0.0031052	0.9868584	0	0.01455951	0.00160170	1.00203705	0	212	507	1843588193	1843588193	147
1.400997	-0.040833	0.020691	0.028503	0	0.0126610	0.0025768	0.9865837	0	0.01350141	0.00070310	1.00174761	0	228	506	-1575557767	-1575557767	147
1.401019	-0.056580	0.022217	0.048035	0	0.0106792	0.0018711	0.9867649	0	0.01192069	-0.00023103	1.00179029	0	244	506	-462262300	-462262300	147
1.401032	-0.062134	0.032471	0.056824	0	0.0084534	0.0016575	0.9876251	0	0.01054525	-0.00099993	1.00200939	0	4	506	-526855703	-526855703	147
1.424968	-0.058472	0.035217	0.069458	0	0.0068645	0.0018711	0.9886799	0	0.00985193	-0.00191903	1.00180507	0	20	506	733495351	733495351	147
1.424994	-0.060547	0.026733	0.085388	0	0.0064583	0.0021152	0.9891586	0	0.00940514	-0.00258422	1.00146794	0	36	506	1130477410	1130477410	147
1.425006	-0.065613	0.018005	0.086182	0	0.0070343	0.0021591	0.9890423	0	0.00906825	-0.00237155	1.00131392	0	52	506	-941997087	-941997087	147
1.448929	-0.058716	0.018127	0.067505	0	0.0081711	0.0021191	0.9885616	0	0.00924730	-0.00183368	1.00104856	0	68	506	-755965206	-755965206	147
1.449000	-0.046692	0.019348	0.042603	0	0.0095348	0.0023289	0.9880314	0	0.01009440	-0.00166154	1.00054502	0	84	507	-560320479	-560320479	147
1.449016	-0.049011	0.011353	0.027161	0	0.0112019	0.0025330	0.9877357	0	0.01173663	-0.00150800	1.00011253	0	100	507	-1533800013	-1533800013	147
1.472915	-0.055664	-0.000671	0.029663	0	0.0130348	0.0023899	0.9873829	0	0.01387167	-0.00103831	0.99976206	0	116	507	-1297442388	-1297442388	147
1.472983	-0.048523	-0.004517	0.042725	0	0.0138474	0.0022316	0.9869404	0	0.01534104	-0.00059390	0.99948502	0	132	506	-175749608	-175749608	147
1.473001	-0.035706	0.003540	0.050537	0	0.0130672	0.0023327	0.9868698	0	0.01546860	-0.00057030	0.99961948	0	148	506	-1351349602	-1351349602	147
1.496891	-0.025696	0.012939	0.044922	0	0.0115242	0.0026436	0.9869328	0	0.01475358	-0.00094938	0.99986172	0	164	506	826403316	826403316	147
1.496916	-0.015564	0.008484	0.031982	0	0.0098019	0.0028439	0.9867592	0	0.01380372	-0.00128889	1.00002694	0	180	506	-1109250236	-1109250236	147
1.496964	-0.013428	-0.010803	0.030029	0	0.0081615	0.0025730	0.9867744	0	0.01267219	-0.00148010	1.00072432	0	196	506	-1024149329	-1024149329	147
1.520845	-0.029175	-0.026550	0.049072	0	0.0070019	0.0020695	0.9872227	0	0.01123857	-0.00190854	1.00153637	0	212	506	-25615148	-25615148	147
1.520866	-0.050354	-0.021667	0.069641	0	0.0065231	0.0021629	0.9877205	0	0.00962877	-0.00231528	1.00148678	0	228	506	-1234631956	-1234631956	147
1.520911	-0.064087	-0.002197	0.070679	0	0.0069256	0.0032330	0.9878540	0	0.00848269	-0.00210571	1.00112557	0	244	506	1316245453	1316245453	147
1.544832	-0.074585	0.009949	0.062012	0	0.0083046	0.0042534	0.9875393	0	0.00847650	-0.00148606	1.00135851	0	4	507	-1115941089	-1115941089	147
1.544852	-0.082581	0.010437	0.056274	0	0.0102940	0.0041924	0.9871140	0	0.00966144	-0.00088978	1.00187516	0	20	507	-1627356194	-1627356194	147
1.544864	-0.083313	0.013123	0.041199	0	0.0122242	0.0035820	0.9870281	0	0.01158381	-0.00023985	1.00205946	0	36	507	7569002	7569002	147
1.568796	-0.079041	0.021851	0.014648	0	0.0136204	0.0032578	0.9871750	0	0.01343441	0.00059795	1.00183797	0	52	506	-816780930	-816780930	147
1.568820	-0.075684	0.029541	0.004517	0	0.0142708	0.0033340	0.9869614	0	0.01465821	0.00118828	1.00154614	0	68	506	-1735406568	-1735406568	147
1.568832	-0.069092	0.028564	0.022949	0	0.0140343	0.0035896	0.9863911	0	0.01523423	0.00091863	1.00149083	0	84	506	653691421	653691421	147
1.592744	-0.059265	0.015320	0.046387	0	0.0128632	0.0035667	0.9860592	0	0.01522136	0.00001287	1.00169921	0	100	506	-499117831	-499117831	147
1.592806	-0.061157	0.000244	0.054077	0	0.0109940	0.0030689	0.9863110	0	0.01474595	-0.00071096	1.00180912	0	116	506	-270017618	-270017618	147
1.592819	-0.072449	0.002136	0.053711	0	0.0090542	0.0024509	0.9870300	0	0.01390171	-0.00092793	1.00138855	0	132	506	-738462427	-738462427	147
1.616798	-0.078308	0.019409	0.058716	0	0.0074902	0.0019169	0.9875755	0	0.01263833	-0.00104308	1.00088596	0	148	507	1549237430	1549237430	147
1.616941	-0.074158	0.030579	0.067993	0	0.0062904	0.0015469	0.9875374	0	0.01112294	-0.00123358	1.00097680	0	164	507	-1836415386	-1836415386	147
1.616960	-0.063721	0.027405	0.070923	0	0.0057411	0.0015182	0.9875221	0	0.00991178	-0.00111222	1.00132370	0	180	506	-1542845876	-1542845876	147
1.640678	-0.058044	0.013245	0.058716	0	0.0062847	0.0016613	0.9879971	0	0.00934339	-0.00089574	1.00135326	0	196	507	1582212548	1582212548	147
1.640713	-0.055969	0.001221	0.040588	0	0.0077019	0.0019474	0.9883518	0	0.00934720	-0.00122380	1.00100040	0	212	506	-25100163	-25100163	147
1.640776	-0.047913	0.010132	0.032166	0	0.0094471	0.0026417	0.9881115	0	0.01020217	-0.00159574	1.00064373	0	228	506	1346265168	1346265168	147
1.664623	-0.039001	0.027832	0.027039	0	0.0111790	0.0030556	0.9875011	0	0.01217961	-0.00115204	1.00077415	0	244	506	1819664484	1819664484	147
1.664645	-0.040100	0.035095	0.011475	0	0.0128212	0.0026569	0.9869270	0	0.01445079	-0.00025225	1.00112295	0	4	506	856228505	856228505	147
1.664657	-0.050842	0.037781	-0.008545	0	0.0140305	0.0025387	0.9867764	0	0.01578140	0.00023341	1.00086999	0	20	506	-771441368	-771441368	147
1.688601	-0.059631	0.038391	-0.013428	0	0.0139523	0.0030079	0.9869328	0	0.01599598	0.00002289	1.00002789	0	36	506	1671246503	1671246503	147
1.688622	-0.067078	0.031433	0.000977	0	0.0124493	0.0030899	0.9870834	0	0.01545501	-0.00049520	0.99963999	0	52	506	-778151651	-778151651	147
1.688634	-0.077026	0.021912	0.016663	0	0.0102673	0.0027657	0.9874496	0	0.01442790	-0.00084972	1.00016880	0	68	507	1193578957	1193578957	147
1.712568	-0.074463	0.019531	0.022827	0	0.0080070	0.0024529	0.9878922	0	0.01334977	-0.00115442	1.00078726	0	84	507	1413541149	1413541149	147
1.712594	-0.059692	0.019165	0.030273	0	0.0062008	0.0021935	0.9878464	0	0.01219630	-0.00157189	1.00083303	0	100	506	-1908061815	-1908061815	147
1.712607	-0.050049	0.017395	0.045776	0	0.0055504	0.0020618	0.9875031	0	0.01089525	-0.00160694	1.00053430	0	116	506	1167995157	1167995157	147
1.736587	-0.047974	0.024902	0.055115	0	0.0060844	0.0022202	0.9874344	0	0.01006031	-0.00096273	1.00022936	0	132	506	-1221551574	-1221551574	147
1.736667	-0.054810	0.031128	0.048096	0	0.0071182	0.0027199	0.9875011	0	0.01007199	-0.00041747	1.00020409	0	148	506	872733693	872733693	147
1.736683	-0.067566	0.019287	0.040466	0	0.0084782	0.0032482	0.9872074	0	0.01062274	-0.00078273	1.00054121	0	164	506	817158857	817158857	147
1.760527	-0.070862	0.004578	0.043152	0	0.0102081	0.0034542	0.9866505	0	0.01164007	-0.00140190	1.00067759	0	180	506	1122893999	1122893999	147
1.760586	-0.061951	-0.000793	0.044373	0	0.0118904	0.0033092	0.9864616	0	0.01335263	-0.00125885	1.00047183	0	196	506	-394869641	-394869641	147
1.760633	-0.055664	-0.004211	0.038635	0	0.0129185	0.0029221	0.9868889	0	0.01509809	-0.00083447	1.00059056	0	212	507	-1265986323	-1265986323	147
1.784500	-0.058289	-0.005981	0.036804	0	0.0129795	0.0024338	0.9873276	0	0.01595974	-0.00103998	1.00099921	0	228	507	-1231622789	-1231622789	147
1.784523	-0.058411	-0.003906	0.047058	0	0.0121975	0.0020237	0.9871273	0	0.01593065	-0.00162554	1.00116777	0	244	506	-1593537708	-1593537708	147
1.784571	-0.053284	-0.000549	0.056946	0	0.0105858	0.0015945	0.9866734	0	0.01528502	-0.00196886	1.00122547	0	4	507	1317607236	1317607236	147
1.808456	-0.052063	0.004333	0.050354	0	0.0082531	0.0010929	0.9866714	0	0.01408672	-0.00218987	1.00151968	0	20	507	87704528	87704528	147
1.808478	-0.055298	0.014160	0.040649	0	0.0062504	0.0010128	0.9867992	0	0.01245570	-0.00240016	1.00216293	0	36	506	404126867	404126867	147
1.808491	-0.050476	0.022461	0.045471	0	0.0056686	0.0014954	0.9865952	0	0.01080418	-0.00219178	1.00306201	0	52	506	-2092736096	-2092736096	147
1.832417	-0.035034	0.018433	0.059082	0	0.0061512	0.0021706	0.9867878	0	0.00961709	-0.00162530	1.00369787	0	68	506	-1305772249	-1305772249	147
1.832444	-0.031372	0.012024	0.065430	0	0.0068741	0.0027485	0.9878788	0	0.00932622	-0.00146294	1.00342941	0	84	506	1620453901	1620453901	147
1.832460	-0.048157	0.014954	0.053833	0	0.0080986	0.0029278	0.9886208	0	0.01013637	-0.00207329	1.00251245	0	100	507	-255085653	-255085653	147
1.856439	-0.065369	0.020752	0.032471	0	0.0102139	0.0028458	0.9882698	0	0.01156235	-0.00278687	1.00182247	0	116	506	80150985	80150985	147
1.856495	-0.070190	0.020203	0.011963	0	0.0123062	0.0029449	0.9878101	0	0.01294112	-0.00279188	1.00137615	0	132	507	-1281536080	-1281536080	147
1.856508	-0.070129	0.013000	-0.002197	0	0.0133801	0.0031242	0.9875507	0	0.01399589	-0.00201297	1.00074482	0	148	507	-827856394	-827856394	147
1.880364	-0.070496	0.010376	-0.000916	0	0.0134811	0.0033054	0.9870434	0	0.01455903	-0.00103235	1.00023079	0	164	507	-1456401902	-1456401902	147
1.880424	-0.060547	0.013733	0.009216	0	0.0128651	0.0034771	0.9866886	0	0.01472688	-0.00061774	1.00014305	0	180	507	347889558	347889558	147
1.880441	-0.038452	0.010803	0.016846	0	0.0117550	0.0033798	0.9868507	0	0.01463675	-0.00064802	1.00013304	0	196	506	519994255	519994255	147
1.904334	-0.027649	0.001709	0.026245	0	0.0102520	0.0030327	0.9873581	0	0.01405931	-0.00055885	0.99995780	0	212	506	1296785466	1296785466	147
1.904359	-0.038269	-0.004272	0.040894	0	0.0084667	0.0024757	0.9881840	0	0.01286149	-0.00064230	0.99971390	0	228	506	1164011594	1164011594	147
1.904408	-0.052307	-0.003479	0.055542	0	0.0069618	0.0017834	0.9888077	0	0.01135492	-0.00116706	0.99978304	0	244	506	1023933628	1023933628	147
1.928316	-0.056152	-0.000732	0.063721	0	0.0062370	0.0015163	0.9886208	0	0.01012540	-0.00174093	1.00033998	0	4	507	1867051569	1867051569	147
1.928341	-0.052307	-0.003113	0.064270	0	0.0063934	0.0019245	0.9879456	0	0.00950909	-0.00222993	1.00087595	0	20	506	-198310444	-198310444	147
1.928459	-0.047058	-0.005249	0.058167	0	0.0072613	0.0024376	0.9872074	0	0.00945139	-0.00268459	1.00106144	0	36	506	-2051273496	-2051273496	147
2.017236	-0.043091	0.002747	0.046997	0	0.0086937	0.0028038	0.9866314	0	0.00993419	-0.00289869	1.00081801	0	52	507	-507394321	-507394321	147
2.017257	-0.039490	0.012817	0.039612	0	0.0103664	0.0031013	0.9864616	0	0.01098108	-0.00288558	1.00018120	0	68	507	-815079119	-815079119	147
2.017269	-0.036255	0.012085	0.041199	0	0.0116997	0.0031719	0.9867687	0	0.01225829	-0.00267887	0.99959850	0	84	507	-686599706	-686599706	147
2.017322	-0.034302	0.006775	0.043457	0	0.0126476	0.0031681	0.9872990	0	0.01342916	-0.00196481	0.99948502	0	100	506	1026397727	1026397727	147
2.017335	-0.035706	0.007507	0.037476	0	0.0132465	0.0033455	0.9873638	0	0.01429200	-0.00106359	0.99980640	0	116	506	-901408982	-901408982	147
2.017347	-0.041931	0.012756	0.025818	0	0.0129814	0.0034580	0.9869518	0	0.01462078	-0.00080824	1.00009775	0	132	506	-133264176	-133264176	147
2.017359	-0.045959	0.013306	0.022827	0	0.0116444	0.0031796	0.9869671	0	0.01445961	-0.00109768	1.00010514	0	148	506	-1663800626	-1663800626	147
2.017408	-0.044373	0.009888	0.035950	0	0.0096035	0.0025902	0.9874668	0	0.01373982	-0.00154448	1.00020266	0	164	506	1524492839	1524492839	147
2.017426	-0.044006	0.010376	0.053894	0	0.0076523	0.0020428	0.9877205	0	0.01256108	-0.00231791	1.00064492	0	180	507	210611328	210611328	147
2.017443	-0.045837	0.009399	0.063904	0	0.0066586	0.0020142	0.9876137	0	0.01151609	-0.00292587	1.00121737	0	196	506	-1248683872	-1248683872	147
2.017479	-0.046326	0.006653	0.067139	0	0.0066605	0.0026951	0.9876556	0	0.01080537	-0.00260115	1.00149035	0	212	507	1159264480	1159264480	147
2.041216	-0.047607	0.015381	0.065857	0	0.0071907	0.0034542	0.9879684	0	0.01034379	-0.00190330	1.00112939	0	228	507	-538926787	-538926787	147
2.041240	-0.051453	0.029602	0.061096	0	0.0082150	0.0037079	0.9878788	0	0.01042032	-0.00185561	1.00070763	0	244	506	1790907856	1790907856	147
2.041252	-0.057800	0.032166	0.052246	0	0.0097332	0.0036297	0.9872494	0	0.01118779	-0.00221682	1.00107741	0	4	506	1082171240	1082171240	147
2.065150	-0.062439	0.028503	0.031189	0	0.0113525	0.0033779	0.9867535	0	0.01225996	-0.00198889	1.00178599	0	20	506	-966061974	-966061974	147
2.065178	-0.054199	0.031677	0.000366	0	0.0124054	0.0031681	0.9865627	0	0.01334643	-0.00112104	1.00179696	0	36	506	1878988420	1878988420	147
2.065194	-0.039856	0.033997	-0.017761	0	0.0125160	0.0032291	0.9865837	0	0.01429868	-0.00043464	1.00101113	0	52	506	333469708	333469708	147
2.089158	-0.041626	0.030640	-0.001404	0	0.0120487	0.0032043	0.9870110	0	0.01470852	-0.00024366	1.00016570	0	68	506	-1778056660	-1778056660	147
2.089215	-0.059265	0.028992	0.035461	0	0.0111790	0.0026512	0.9875240	0	0.01415491	-0.00035548	1.00008798	0	84	507	-1023127290	-1023127290	147
2.089228	-0.073486	0.024780	0.055725	0	0.0095444	0.0018368	0.9875622	0	0.01279426	-0.00071263	1.00086951	0	100	506	-1670974778	-1670974778	147
2.113134	-0.073975	0.016724	0.053284	0	0.0076294	0.0014019	0.9874153	0	0.01132536	-0.00115681	1.00147128	0	116	507	-1059440854	-1059440854	147
2.113191	-0.067505	0.008911	0.048645	0	0.0064812	0.0012703	0.9876385	0	0.01017261	-0.00166440	1.00094843	0	132	507	1396535838	1396535838	147
2.113203	-0.065002	0.002441	0.051086	0	0.0061359	0.0012455	0.9880676	0	0.00927210	-0.00249791	0.99991965	0	148	506	1536926598	1536926598	147
2.137120	-0.065308	0.007629	0.053223	0	0.0063286	0.0016060	0.9882183	0	0.00872946	-0.00330067	0.99948549	0	164	507	-2024005355	-2024005355	147
2.137141	-0.064148	0.027527	0.041931	0	0.0073624	0.0021076	0.9877949	0	0.00903106	-0.00339961	0.99976492	0	180	506	-228939777	-228939777	147
2.137188	-0.061096	0.045349	0.018188	0	0.0091743	0.0024281	0.9869213	0	0.01007462	-0.00281334	1.00034833	0	196	506	77966783	77966783	147
2.161145	-0.057129	0.046448	0.001526	0	0.0109997	0.0027561	0.9863358	0	0.01119137	-0.00197721	1.00066400	0	212	506	1336847024	1336847024	147
2.161174	-0.056335	0.041870	0.004089	0	0.0124054	0.0031986	0.9864922	0	0.01217508	-0.00131130	1.00046611	0	228	506	1920269261	1920269261	147
2.161240	-0.057434	0.044067	0.018005	0	0.0134335	0.0036240	0.9866962	0	0.01313806	-0.00116158	1.00000834	0	244	507	1117524059	1117524059	147
2.185027	-0.054260	0.040710	0.025085	0	0.0134964	0.0038795	0.9864788	0	0.01407552	-0.00144458	0.99953032	0	4	507	195208043	195208043	147
2.185049	-0.055420	0.026672	0.021606	0	0.0120316	0.0037880	0.9865131	0	0.01457906	-0.00167060	0.99940658	0	20	506	-365187359	-365187359	147
2.185062	-0.067383	0.018677	0.026489	0	0.0099945	0.0033340	0.9870033	0	0.01414466	-0.00157428	0.99984646	0	36	507	1274195247	1274195247	147
2.208992	-0.073853	0.021729	0.045166	0	0.0085907	0.0029488	0.9874897	0	0.01288342	-0.00136185	1.00053644	0	52	507	-1301533579	-1301533579	147
2.209020	-0.066040	0.028687	0.062805	0	0.0076427	0.0028076	0.9878464	0	0.01137304	-0.00132728	1.00111294	0	68	507	172877850	172877850	147
2.209038	-0.056641	0.037170	0.072571	0	0.0068531	0.0025921	0.9881458	0	0.01010036	-0.00141764	1.00148606	0	84	506	-455638766	-455638766	147
2.232938	-0.051514	0.042358	0.077209	0	0.0067692	0.0023880	0.9883823	0	0.00904894	-0.00142646	1.00176835	0	100	506	1954331197	1954331197	147
2.233017	-0.046936	0.040649	0.074402	0	0.0075035	0.0023975	0.9882145	0	0.00833988	-0.00136876	1.00193477	0	116	506	296653098	296653098	147
2.233036	-0.045166	0.035583	0.059387	0	0.0084782	0.0026875	0.9875107	0	0.00870872	-0.00112104	1.00159717	0	132	506	-820046820	-820046820	147
2.256926	-0.051086	0.034241	0.040527	0	0.0097218	0.0031414	0.9865818	0	0.01057625	-0.00042963	1.00081921	0	148	506	-329404349	-329404349	147
2.256977	-0.064697	0.034973	0.028870	0	0.0114288	0.0031300	0.9857178	0	0.01316690	0.00023198	1.00045419	0	164	506	-2009535776	-2009535776	147
2.256991	-0.081848	0.026794	0.024292	0	0.0130272	0.0027351	0.9853325	0	0.01507545	0.00010204	1.00051856	0	180	507	1809921607	1809921607	147
2.280893	-0.089539	0.011414	0.023682	0	0.0135765	0.0026302	0.9854527	0	0.01567292	-0.00061917	1.00024581	0	196	507	-1932319881	-1932319881	147
2.280914	-0.077576	0.002625	0.026428	0	0.0126038	0.0027905	0.9859905	0	0.01545167	-0.00101042	0.99982595	0	212	506	2131450242	2131450242	147
2.280963	-0.058350	0.002747	0.032471	0	0.0109177	0.0028782	0.9870358	0	0.01509047	-0.00059223	1.00009441	0	228	507	-2113794369	-2113794369	147
2.304882	-0.046387	-0.000793	0.037659	0	0.0094986	0.0027847	0.9879131	0	0.01434588	0.00006270	1.00109577	0	244	506	-1868476414	-1868476414	147
2.304918	-0.044006	-0.007568	0.036743	0	0.0081577	0.0026016	0.9879589	0	0.01265788	0.00015903	1.00208402	0	4	506	-976082988	-976082988	147
2.304933	-0.054199	-0.002930	0.042480	0	0.0068531	0.0025501	0.9875088	0	0.01059508	-0.00028396	1.00283194	0	20	506	-1297764600	-1297764600	147
2.328816	-0.063843	0.008667	0.058960	0	0.0060863	0.0026073	0.9872513	0	0.00910497	-0.00075865	1.00334024	0	36	506	514030692	514030692	147
2.328840	-0.053772	0.014832	0.058044	0	0.0059948	0.0024872	0.9874783	0	0.00826788	-0.00091720	1.00321412	0	52	506	1932359960	1932359960	147
2.328854	-0.043640	0.013916	0.042053	0	0.0069485	0.0023346	0.9878139	0	0.00808668	-0.00095272	1.00258088	0	68	506	1704113760	1704113760	147
2.352837	-0.053528	0.007507	0.037598	0	0.0090866	0.0027370	0.9877014	0	0.00894213	-0.00112247	1.00174689	0	84	507	-728492685	-728492685	147
2.352858	-0.059204	-0.000488	0.035278	0	0.0113201	0.0035725	0.9872093	0	0.01079893	-0.00110483	1.00085807	0	100	507	133297868	133297868	147
2.352870	-0.048523	-0.006348	0.023865	0	0.0127029	0.0042133	0.9867325	0	0.01300454	-0.00063539	1.00043082	0	116	507	679002043	679002043	147
2.376783	-0.042419	-0.001099	0.011353	0	0.0132618	0.0042992	0.9862385	0	0.01492453	-0.00011277	1.00049949	0	132	506	1793956805	1793956805	147
2.376840	-0.049133	0.017456	0.005310	0	0.0131416	0.0036488	0.9857502	0	0.01626682	-0.00024605	1.00045872	0	148	506	1944681517	1944681517	147
2.376853	-0.058594	0.028870	0.012207	0	0.0121078	0.0028076	0.9858074	0	0.01641512	-0.00103426	1.00026131	0	164	506	926710748	926710748	147
2.400775	-0.062134	0.027283	0.027893	0	0.0102882	0.0023594	0.9864635	0	0.01485229	-0.00156522	1.00019574	0	180	506	1037133414	1037133414	147
2.400802	-0.060120	0.030884	0.044006	0	0.0085564	0.0019474	0.9872723	0	0.01254249	-0.00151658	1.00027919	0	196	506	453216195	453216195	147
2.400864	-0.059937	0.035645	0.059143	0	0.0074024	0.0015621	0.9881096	0	0.01072645	-0.00157976	1.00033998	0	212	507	-976865201	-976865201	147
2.424752	-0.063721	0.026001	0.071533	0	0.0067139	0.0016193	0.9886608	0	0.00920320	-0.00211978	1.00023723	0	228	506	-166636944	-166636944	147
2.424779	-0.071289	0.014160	0.073853	0	0.0064583	0.0020046	0.9885941	0	0.00757837	-0.00270343	1.00016499	0	244	506	268128244	268128244	147
2.424822	-0.082153	0.016541	0.060852	0	0.0066662	0.0025196	0.9883289	0	0.00653863	-0.00267839	1.00030255	0	4	507	1907937549	1907937549	147
2.448665	-0.079346	0.020813	0.041809	0	0.0075226	0.0031242	0.9881420	0	0.00684810	-0.00189590	1.00040936	0	20	507	-1102404690	-1102404690	147
2.448696	-0.058105	0.012024	0.032410	0	0.0090256	0.0034370	0.9875793	0	0.00829816	-0.00106883	1.00013924	0	36	507	2065057158	2065057158	147
2.448715	-0.042847	-0.003174	0.033020	0	0.0106926	0.0032787	0.9866333	0	0.01014400	-0.00090599	0.99964786	0	52	506	-1279061729	-1279061729	147
2.472622	-0.041809	-0.010925	0.025696	0	0.0120106	0.0031223	0.9860916	0	0.01209211	-0.00121760	0.99961448	0	68	506	-898866179	-898866179	147
2.472647	-0.043518	-0.003967	0.005859	0	0.0127144	0.0030270	0.9862061	0	0.01395583	-0.00119066	1.00033784	0	84	506	1076320629	1076320629	147
2.472660	-0.042664	0.008667	-0.003113	0	0.0126877	0.0026588	0.9865189	0	0.01491356	-0.00051975	1.00129533	0	100	506	-1399201205	-1399201205	147
2.496632	-0.039978	0.011841	0.011292	0	0.0116692	0.0022106	0.9868107	0	0.01470685	-0.00003052	1.00183964	0	116	506	-1599560984	-1599560984	147
2.496691	-0.036560	0.008423	0.038391	0	0.0097942	0.0019245	0.9870758	0	0.01397038	-0.00035977	1.00199556	0	132	506	1537928687	1537928687	147
2.496704	-0.037903	0.009277	0.057739	0	0.0079403	0.0017948	0.9873028	0	0.01285529	-0.00094557	1.00206232	0	148	506	1241362442	1241362442	147
2.520589	-0.049683	0.012756	0.057434	0	0.0067158	0.0019264	0.9874306	0	0.01146388	-0.00121927	1.00197673	0	164	506	-1729110336	-1729110336	147
2.520643	-0.057861	0.011230	0.059875	0	0.0063744	0.0022621	0.9873085	0	0.01022148	-0.00139904	1.00187755	0	180	507	1916764682	1916764682	147
2.520656	-0.051758	0.007263	0.078857	0	0.0070534	0.0026970	0.9872303	0	0.00942659	-0.00168467	1.00196457	0	196	507	-1893376320	-1893376320	147
2.544599	-0.046814	0.007874	0.088135	0	0.0083809	0.0031433	0.9872589	0	0.00947905	-0.00180912	1.00167918	0	212	507	-1142392986	-1142392986	147
2.544618	-0.047180	0.010620	0.071899	0	0.0098305	0.0033035	0.9870567	0	0.01042938	-0.00148940	1.00085402	0	228	506	-1119120569	-1119120569	147
2.544665	-0.045898	0.013611	0.047363	0	0.0110149	0.0031528	0.9868240	0	0.01192665	-0.00101614	1.00039864	0	244	506	2110869044	2110869044	147
2.568532	-0.049622	0.018555	0.024780	0	0.0118656	0.0031204	0.9867706	0	0.01362491	-0.00097656	1.00056529	0	4	506	1303071575	1303071575	147
2.568561	-0.054688	0.015198	-0.000061	0	0.0124760	0.0031643	0.9866753	0	0.01484323	-0.00130773	1.00067019	0	20	506	-842654344	-842654344	147
2.568620	-0.050110	-0.001953	-0.010925	0	0.0124722	0.0028439	0.9864655	0	0.01507807	-0.00146437	1.00060463	0	36	506	-1930377007	-1930377007	147
2.592508	-0.045837	-0.014893	0.002930	0	0.0116920	0.0023632	0.9865208	0	0.01457763	-0.00131488	1.00061059	0	52	506	443812239	443812239	147
2.592531	-0.050354	-0.013916	0.015869	0	0.0104103	0.0022182	0.9869633	0	0.01368570	-0.00137591	1.00061464	0	68	507	-212014727	-212014727	147
2.592543	-0.050598	-0.010925	0.026123	0	0.0086689	0.0023632	0.9873219	0	0.01251745	-0.00188351	1.00066209	0	84	507	1138120127	1138120127	147
2.616567	-0.042053	-0.006897	0.053345	0	0.0067978	0.0025005	0.9874153	0	0.01100850	-0.00213265	1.00079012	0	100	507	1447786169	1447786169	147
2.616623	-0.037903	0.002136	0.074951	0	0.0057697	0.0025349	0.9872742	0	0.00920558	-0.00177693	1.00079322	0	116	507	-1630001513	-1630001513	147
2.616642	-0.044495	0.000427	0.072449	0	0.0061607	0.0024033	0.9871483	0	0.00792670	-0.00142527	1.00071931	0	132	506	449521729	449521729	147
2.640456	-0.049805	-0.011658	0.064514	0	0.0075092	0.0023251	0.9875603	0	0.00786686	-0.00137973	1.00079942	0	148	506	-996632010	-996632010	147
2.640527	-0.049133	-0.005676	0.053711	0	0.0090561	0.0026283	0.9879341	0	0.00881624	-0.00126648	1.00095201	0	164	506	-559061369	-559061369	147
2.640539	-0.056335	0.022705	0.036804	0	0.0104771	0.0027428	0.9875107	0	0.01047444	-0.00081730	1.00093102	0	180	506	1898260893	1898260893	147
2.664492	-0.065430	0.043335	0.026062	0	0.0116158	0.0025406	0.9869614	0	0.01230145	-0.00034714	1.00051522	0	196	506	1354867751	1354867751	147
2.664561	-0.066895	0.037720	0.023621	0	0.0124626	0.0028648	0.9868870	0	0.01361465	-0.00025988	0.99973774	0	212	506	-1701924322	-1701924322	147
2.664580	-0.068176	0.019287	0.027405	0	0.0130920	0.0033474	0.9869862	0	0.01438832	-0.00041556	0.99923611	0	228	506	-931471002	-931471002	147
2.688432	-0.063843	0.004883	0.038635	0	0.0130882	0.0032692	0.9870739	0	0.01464152	-0.00049353	0.99920940	0	244	507	-429193053	-429193053	147
2.688465	-0.050659	0.001160	0.048645	0	0.0120831	0.0027275	0.9870071	0	0.01418495	-0.00056434	0.99902964	0	4	507	1229891351	1229891351	147
2.688536	-0.044434	0.005798	0.054565	0	0.0102673	0.0020142	0.9865360	0	0.01315689	-0.00080061	0.99881601	0	20	507	1765486695	1765486695	147
2.712404	-0.048523	0.005859	0.068054	0	0.0079536	0.0016270	0.9861965	0	0.01194048	-0.00117707	0.99925351	0	36	506	-592679588	-592679588	147
2.712428	-0.048645	0.000549	0.084656	0	0.0059757	0.0015392	0.9866219	0	0.01078534	-0.00154257	1.00009084	0	52	506	-1104542211	-1104542211	147
2.712441	-0.047424	0.000854	0.087341	0	0.0052509	0.0014248	0.9874420	0	0.00971127	-0.00150180	1.00057936	0	68	506	-1515658225	-1515658225	147
2.736374	-0.056458	0.009521	0.070984	0	0.0058365	0.0015144	0.9880333	0	0.00895238	-0.00099063	1.00072598	0	84	506	1109110965	1109110965	147
2.736395	-0.063416	0.022034	0.044617	0	0.0071774	0.0018311	0.9880085	0	0.00899673	-0.00044322	1.00103831	0	100	506	1989824255	1989824255	147
2.736407	-0.057007	0.034546	0.028931	0	0.0087757	0.0021114	0.9873981	0	0.01004004	-0.00010967	1.00139832	0	116	506	446586028	446586028	147
2.760335	-0.049133	0.041809	0.032715	0	0.0105381	0.0024929	0.9867554	0	0.01162958	-0.00014091	1.00133395	0	132	506	1063129985	1063129985	147
2.760360	-0.046326	0.032471	0.037964	0	0.0122604	0.0030155	0.9864502	0	0.01300073	-0.00032997	1.00095606	0	148	507	1044280779	1044280779	147
2.760372	-0.038635	0.011169	0.029053	0	0.0132809	0.0031681	0.9867306	0	0.01405454	-0.00021362	1.00055599	0	164	506	2071113136	2071113136	147
2.784289	-0.028687	-0.005371	0.013550	0	0.0131626	0.0027885	0.9873676	0	0.01514983	0.00000334	1.00022912	0	180	507	747715529	747715529	147
2.784395	-0.034607	-0.016052	0.004028	0	0.0120926	0.0023766	0.9875088	0	0.01592684	-0.00012159	0.99999070	0	196	506	-1544790756	-1544790756	147
2.784418	-0.053589	-0.021179	0.005981	0	0.0105572	0.0023384	0.9873505	0	0.01560307	-0.00046587	0.99982047	0	212	505	-2022279835	-2022279835	147
2.833213	-0.066101	-0.015137	0.026306	0	0.0088978	0.0025864	0.9875641	0	0.01401663	-0.00065637	1.00004172	0	228	506	-352672370	-352672370	147
2.833298	-0.066284	-0.005798	0.053223	0	0.0075455	0.0027084	0.9878845	0	0.01177645	-0.00087261	1.00065184	0	244	506	-233211367	-233211367	147
2.833313	-0.058838	-0.001160	0.054565	0	0.0067101	0.0025196	0.9878330	0	0.00987196	-0.00153899	1.00090170	0	4	506	417536433	417536433	147
2.833326	-0.049316	0.005859	0.039490	0	0.0062923	0.0022984	0.9873867	0	0.00892425	-0.00213146	1.00066042	0	20	506	-328583704	-328583704	147
2.833338	-0.044312	0.011719	0.045654	0	0.0069237	0.0022469	0.9869595	0	0.00875425	-0.00195384	1.00054455	0	36	506	-53066349	-53066349	147
2.833381	-0.050293	0.011536	0.059814	0	0.0088940	0.0022659	0.9868793	0	0.00907397	-0.00141668	1.00083518	0	52	506	2141834256	2141834256	147
2.897139	-0.059082	0.018127	0.050110	0	0.0110416	0.0022087	0.9868736	0	0.00995898	-0.00111842	1.00141668	0	68	507	2090409417	2090409417	147
2.897161	-0.058838	0.025818	0.022888	0	0.0124226	0.0022354	0.9865150	0	0.01135111	-0.00100827	1.00200653	0	84	506	1522125497	1522125497	147
2.897176	-0.061218	0.014709	-0.001404	0	0.0131569	0.0027237	0.9859924	0	0.01282978	-0.00085878	1.00217104	0	100	507	-644953860	-644953860	147
2.897250	-0.067444	-0.003479	-0.005188	0	0.0134544	0.0032806	0.9859314	0	0.01404262	-0.00068355	1.00173521	0	116	506	1605207411	1605207411	147
2.897266	-0.058716	-0.010132	0.009155	0	0.0130749	0.0031052	0.9864140	0	0.01472855	-0.00059128	1.00105047	0	132	506	558337261	558337261	147
2.897278	-0.040466	-0.012146	0.024292	0	0.0120831	0.0023766	0.9870415	0	0.01448894	-0.00067425	1.00053072	0	148	506	1115115013	1115115013	147
2.897309	-0.034851	-0.019958	0.042053	0	0.0106964	0.0018597	0.9876499	0	0.01316071	-0.00118661	1.00051594	0	164	506	117268125	117268125	147
2.897321	-0.047729	-0.024292	0.062927	0	0.0088654	0.0017643	0.9881153	0	0.01118898	-0.00189805	1.00113821	0	180	506	544165683	544165683	147
2.921102	-0.069275	-0.015869	0.072083	0	0.0071793	0.0018330	0.9882870	0	0.00945783	-0.00184131	1.00196743	0	196	506	930223141	930223141	147
2.921125	-0.082336	-0.008972	0.067688	0	0.0062523	0.0020390	0.9883595	0	0.00852752	-0.00107002	1.00222874	0	212	506	168093213	168093213	147
2.921175	-0.080566	-0.006592	0.058533	0	0.0063896	0.0023842	0.9884205	0	0.00820661	-0.00078535	1.00158763	0	228	507	294069458	294069458	147
2.945138	-0.078003	0.004089	0.048401	0	0.0076733	0.0025730	0.9881077	0	0.00831461	-0.00121927	1.00082493	0	244	507	769126507	769126507	147
2.945170	-0.079346	0.017273	0.038330	0	0.0095463	0.0026283	0.9874020	0	0.00910640	-0.00169492	1.00067472	0	4	507	-119801873	-119801873	147
2.945183	-0.072998	0.022156	0.024963	0	0.0114346	0.0028877	0.9869022	0	0.01055741	-0.00209308	1.00063205	0	20	506	242278589	242278589	147
2.969128	-0.060730	0.021851	0.009583	0	0.0128632	0.0033684	0.9866600	0	0.01229572	-0.00234246	1.00029588	0	36	506	2093839547	2093839547	147
2.969149	-0.053223	0.021484	0.004578	0	0.0134544	0.0038967	0.9864044	0	0.01417017	-0.00184035	1.00012374	0	52	506	227795839	227795839	147
2.969162	-0.049072	0.015259	0.007996	0	0.0132961	0.0041122	0.9864063	0	0.01595855	-0.00069880	1.00040269	0	68	506	-1743952614	-1743952614	147
2.993038	-0.040405	0.003845	0.011292	0	0.0127068	0.0036087	0.9865952	0	0.01708460	0.00025105	1.00098085	0	84	506	2092286701	2092286701	147
2.993064	-0.029297	0.004395	0.024658	0	0.0117130	0.0027122	0.9865150	0	0.01689124	0.00059819	1.00159335	0	100	507	1108814583	1108814583	147
2.993076	-0.027161	0.016968	0.049500	0	0.0099430	0.0019817	0.9864826	0	0.01497722	0.00038815	1.00201297	0	116	506	1360820564	1360820564	147
3.017089	-0.034729	0.023376	0.070801	0	0.0079479	0.0014954	0.9869957	0	0.01210403	-0.00015855	1.00203753	0	132	507	-413398174	-413398174	147
3.017158	-0.037537	0.020020	0.077759	0	0.0069866	0.0014591	0.9875336	0	0.00998282	-0.00090790	1.00170708	0	148	507	-1912413648	-1912413648	147
3.017170	-0.031982	0.013428	0.070251	0	0.0069351	0.0019913	0.9874287	0	0.00923443	-0.00165582	1.00182366	0	164	506	467210571	467210571	147
3.041007	-0.033630	0.005005	0.054871	0	0.0073433	0.0026112	0.9873028	0	0.00926471	-0.00181842	1.00262952	0	180	506	-1982015987	-1982015987	147
3.041027	-0.046570	0.001831	0.037354	0	0.0084858	0.0030460	0.9877720	0	0.00977802	-0.00133252	1.00301266	0	196	506	70392107	70392107	147
3.041077	-0.055908	0.011963	0.027588	0	0.0100288	0.0034904	0.9878807	0	0.01074624	-0.00092220	1.00267076	0	212	506	-535949571	-535949571	147
3.064973	-0.054688	0.025146	0.029785	0	0.0114193	0.0038586	0.9870892	0	0.01187015	-0.00059485	1.00246835	0	228	506	1808658772	1808658772	147
3.065004	-0.053040	0.023987	0.033691	0	0.0124741	0.0039845	0.9864311	0	0.01283622	0.00002861	1.00265551	0	244	506	905007252	905007252	147
3.065065	-0.060913	0.010864	0.028137	0	0.0129833	0.0039139	0.9865379	0	0.01363325	0.00044990	1.00258851	0	4	506	-715422430	-715422430	147
3.088973	-0.071411	0.004700	0.019714	0	0.0128822	0.0035496	0.9871311	0	0.01430774	0.00041676	1.00201440	0	20	507	1020057711	1020057711	147
3.088994	-0.070801	0.009155	0.025269	0	0.0120964	0.0029182	0.9875736	0	0.01454401	0.00035596	1.00162196	0	36	507	1825165233	1825165233	147
3.089006	-0.062317	0.013489	0.042664	0	0.0104733	0.0024242	0.9875259	0	0.01404190	0.00029707	1.00149608	0	52	507	-1606573800	-1606573800	147
3.112952	-0.057678	0.015808	0.058594	0	0.0083218	0.0022259	0.9875660	0	0.01285243	-0.00009632	1.00115299	0	68	507	-1067300806	-1067300806	147
3.112980	-0.058838	0.014343	0.068726	0	0.0066109	0.0021820	0.9879570	0	0.01119447	-0.00093794	1.00106812	0	84	507	-446363165	-446363165	147
3.112993	-0.062744	0.008179	0.070679	0	0.0060768	0.0022640	0.9882412	0	0.00972700	-0.00184608	1.00137353	0	100	506	974101485	974101485	147
3.136857	-0.062256	0.004578	0.061401	0	0.0063591	0.0024376	0.9882812	0	0.00912905	-0.00211239	1.00129604	0	116	506	1806251616	1806251616	147
3.136926	-0.057617	0.004883	0.044250	0	0.0070591	0.0026321	0.9880619	0	0.00942373	-0.00156116	1.00089669	0	132	506	-1107656969	-1107656969	147
3.136943	-0.056396	0.006470	0.027405	0	0.0085545	0.0030289	0.9873753	0	0.01043439	-0.00083160	1.00073695	0	148	506	703131268	703131268	147
3.160843	-0.054321	0.010681	0.021301	0	0.0107727	0.0037231	0.9864483	0	0.01191926	-0.00048876	1.00086617	0	164	506	859391113	859391113	147
3.160898	-0.050903	0.016846	0.025879	0	0.0125694	0.0042152	0.9859447	0	0.01367402	-0.00039911	1.00129366	0	180	506	219586235	219586235	147
3.160911	-0.057007	0.022339	0.025391	0	0.0131817	0.0040531	0.9860878	0	0.01536179	-0.00003219	1.00207019	0	196	506	-353268191	-353268191	147
3.184765	-0.067566	0.023376	0.021729	0	0.0129299	0.0035534	0.9864712	0	0.01601934	0.00041747	1.00271749	0	212	506	-2134712588	-2134712588	147
3.184789	-0.068298	0.020691	0.037659	0	0.0120487	0.0031319	0.9868603	0	0.01534820	0.00020885	1.00250101	0	228	507	77080355	77080355	147
3.184843	-0.064636	0.015015	0.068726	0	0.0104046	0.0027618	0.9873810	0	0.01415539	-0.00040102	1.00155234	0	244	506	-770199322	-770199322	147
3.208745	-0.070862	0.004761	0.087219	0	0.0082188	0.0025539	0.9878941	0	0.01267958	-0.00087905	1.00080013	0	4	506	988632872	988632872	147
3.208766	-0.084717	0.002197	0.085022	0	0.0062714	0.0026741	0.9879589	0	0.01100063	-0.00151587	1.00057292	0	20	506	-717583989	-717583989	147
3.208779	-0.086853	0.015503	0.067871	0	0.0053425	0.0027485	0.9876385	0	0.00986052	-0.00236297	1.00060248	0	36	506	-1325112416	-1325112416	147
3.232714	-0.068115	0.028625	0.048767	0	0.0055733	0.0024757	0.9876194	0	0.00929379	-0.00285459	1.00073433	0	52	506	1376884181	1376884181	147
3.232766	-0.042847	0.028442	0.038086	0	0.0068321	0.0023022	0.9881210	0	0.00894284	-0.00273299	1.00084305	0	68	507	1749153269	1749153269	147
3.232785	-0.034851	0.018677	0.025208	0	0.0087528	0.0025406	0.9885101	0	0.00927782	-0.00220990	1.00083208	0	84	506	2016308016	2016308016	147
3.256696	-0.054932	0.009705	0.007629	0	0.0104313	0.0029354	0.9883213	0	0.01051521	-0.00162888	1.00058270	0	100	507	-645796939	-645796939	147
3.256716	-0.078735	0.011353	0.001953	0	0.0116463	0.0033112	0.9878998	0	0.01205349	-0.00125742	1.00015497	0	116	507	1721629153	1721629153	147
3.256729	-0.078430	0.020386	0.004761	0	0.0129509	0.0034122	0.9875851	0	0.01338983	-0.00087428	0.99986362	0	132	506	1777939227	1777939227	147
3.280688	-0.061707	0.026855	-0.003601	0	0.0138893	0.0031986	0.9873962	0	0.01442432	-0.00019169	0.99962068	0	148	507	-99806575	-99806575	147
3.280752	-0.045593	0.029297	-0.014099	0	0.0135155	0.0031395	0.9874496	0	0.01502275	0.00025439	0.99934721	0	164	506	700993510	700993510	147
3.280765	-0.037415	0.025269	0.001160	0	0.0120163	0.0033283	0.9876842	0	0.01473856	-0.00001073	0.99940848	0	180	506	352080547	352080547	147
3.304622	-0.040466	0.012878	0.036560	0	0.0102024	0.0033875	0.9876766	0	0.01338577	-0.00030184	0.99974847	0	196	506	22664945	22664945	147
3.304652	-0.047302	0.003601	0.064697	0	0.0084534	0.0030575	0.9872990	0	0.01151609	-0.00004315	1.00012136	0	212	506	1696861911	1696861911	147
3.304713	-0.049194	0.007812	0.076965	0	0.0068531	0.0025921	0.9870300	0	0.01000857	0.00009680	1.00061893	0	228	506	-1104837493	-1104837493	147
3.328548	-0.048828	0.021851	0.074036	0	0.0057316	0.0025501	0.9869385	0	0.00908995	-0.00043964	1.00117207	0	244	506	1787898071	1787898071	147
3.328574	-0.048523	0.032715	0.065857	0	0.0055122	0.0027008	0.9869499	0	0.00837946	-0.00099397	1.00166321	0	4	506	-1344201415	-1344201415	147
3.328626	-0.044678	0.035156	0.062439	0	0.0064735	0.0024662	0.9873276	0	0.00825047	-0.00100064	1.00198030	0	20	507	312242475	312242475	147
3.352580	-0.039001	0.039978	0.055298	0	0.0084324	0.0022106	0.9875546	0	0.00928307	-0.00081229	1.00185323	0	36	507	-1715646812	-1715646812	147
3.352612	-0.037720	0.041870	0.049500	0	0.0105152	0.0023403	0.9871655	0	0.01101017	-0.00057220	1.00142837	0	52	507	-1115172528	-1115172528	147
3.352628	-0.040588	0.025269	0.051880	0	0.0120525	0.0027275	0.9867458	0	0.01270390	-0.00019121	1.00114131	0	68	506	1533204944	1533204944	147
3.376492	-0.048096	0.004456	0.042969	0	0.0129261	0.0032272	0.9866104	0	0.01407814	-0.00009346	1.00098467	0	84	506	1090244936	1090244936	147
3.376517	-0.058411	-0.004272	0.025757	0	0.0129585	0.0035152	0.9865494	0	0.01492214	-0.00041962	1.00069976	0	100	506	-1434998100	-1434998100	147
3.376529	-0.061890	-0.003784	0.028931	0	0.0120277	0.0033875	0.9865551	0	0.01488090	-0.00069141	1.00031471	0	116	506	1559251822	1559251822	147
3.400552	-0.055603	0.005371	0.046509	0	0.0103607	0.0029926	0.9868202	0	0.01389551	-0.00075197	1.00008368	0	132	506	828270914	828270914	147
3.400596	-0.046448	0.016907	0.054932	0	0.0085564	0.0024738	0.9874802	0	0.01242495	-0.00102925	1.00006413	0	148	506	-1196827699	-1196827699	147
3.400613	-0.043518	0.023560	0.060181	0	0.0071964	0.0018597	0.9880733	0	0.01074696	-0.00175714	0.99993944	0	164	506	-1388995427	-1388995427	147
3.424486	-0.048279	0.032410	0.071472	0	0.0064545	0.0014038	0.9879875	0	0.00910568	-0.00233555	0.99966788	0	180	507	339560820	339560820	147
3.424541	-0.047241	0.044617	0.072937	0	0.0063286	0.0014782	0.9875088	0	0.00819516	-0.00214982	0.99976969	0	196	507	-1061823710	-1061823710	147
3.424554	-0.035767	0.045776	0.055725	0	0.0068130	0.0019321	0.9871368	0	0.00840235	-0.00172544	1.00013828	0	212	507	355410218	355410218	147
3.448451	-0.030640	0.037476	0.040466	0	0.0079556	0.0025635	0.9869881	0	0.00955486	-0.00160551	1.00015521	0	228	505	-1160762209	-1160762209	147
3.448657	-0.039429	0.035400	0.038391	0	0.0095901	0.0034103	0.9873772	0	0.01134086	-0.00136089	1.00015211	0	244	506	-1759215881	-1759215881	147
3.448727	-0.047729	0.028809	0.038330	0	0.0111103	0.0040379	0.9880657	0	0.01344204	-0.00069737	1.00055170	0	4	506	1042188456	1042188456	147
3.472447	-0.051147	0.012085	0.032532	0	0.0121422	0.0040359	0.9881115	0	0.01520896	0.00010490	1.00088429	0	20	506	1116486366	1116486366	147
3.472475	-0.056396	0.009094	0.022522	0	0.0126247	0.0036221	0.9873829	0	0.01566601	0.00044394	1.00082588	0	36	506	1520539894	1520539894	147
3.472530	-0.058472	0.018616	0.017639	0	0.0123577	0.0031891	0.9867783	0	0.01500702	0.00002456	1.00031614	0	52	506	367967396	367967396	147
3.496435	-0.056580	0.017090	0.023071	0	0.0112381	0.0028381	0.9868069	0	0.01445532	-0.00062823	0.99973464	0	68	506	1141325108	1141325108	147
3.496457	-0.053345	0.008057	0.029480	0	0.0094814	0.0023689	0.9872208	0	0.01402068	-0.00115037	0.99995899	0	84	506	1320114494	1320114494	147
3.496470	-0.049255	0.008667	0.034424	0	0.0076637	0.0018349	0.9877472	0	0.01274657	-0.00173759	1.00084352	0	100	507	-937861137	-937861137	147
3.520364	-0.051819	0.010071	0.046509	0	0.0063725	0.0015068	0.9882412	0	0.01058292	-0.00238371	1.00182796	0	116	507	-410990247	-410990247	147
3.520386	-0.060791	-0.003296	0.059387	0	0.0060120	0.0014362	0.9883461	0	0.00856781	-0.00274825	1.00272155	0	132	507	-1126473923	-1126473923	147
3.520398	-0.067993	-0.012756	0.059937	0	0.0068188	0.0015965	0.9876575	0	0.00766253	-0.00255084	1.00283432	0	148	506	450106303	450106303	147
3.544343	-0.069763	-0.006104	0.052917	0	0.0083389	0.0017662	0.9864635	0	0.00806808	-0.00194740	1.00210333	0	164	506	1130126239	1130126239	147
3.544397	-0.065918	-0.002319	0.044434	0	0.0099716	0.0018559	0.9858475	0	0.00950360	-0.00137734	1.00137877	0	180	506	-1037518399	-1037518399	147
3.544410	-0.064087	-0.004150	0.028503	0	0.0115585	0.0021820	0.9863014	0	0.01142836	-0.00101972	1.00092745	0	196	506	-555447439	-555447439	147
3.568320	-0.068542	-0.004333	0.011902	0	0.0129128	0.0026875	0.9869480	0	0.01329994	-0.00093198	1.00068498	0	212	506	278043290	278043290	147
3.568396	-0.073792	-0.005737	0.007263	0	0.0135765	0.0029278	0.9871521	0	0.01481318	-0.00120115	1.00071335	0	228	507	-972157781	-972157781	147
3.568413	-0.074280	-0.006531	0.011536	0	0.0132389	0.0028000	0.9870338	0	0.01573801	-0.00167537	1.00090480	0	244	506	-1571269791	-1571269791	147
3.592249	-0.065674	-0.001038	0.024292	0	0.0121059	0.0024605	0.9867401	0	0.01586533	-0.00188065	1.00100112	0	4	506	1833992633	1833992633	147
3.592279	-0.053894	0.012451	0.043335	0	0.0105000	0.0020828	0.9866581	0	0.01496863	-0.00149751	1.00077939	0	20	507	-1435829328	-1435829328	147
3.592348	-0.046814	0.025818	0.050903	0	0.0086288	0.0018826	0.9868488	0	0.01316524	-0.00103998	1.00022483	0	36	507	92541239	92541239	147
3.641205	-0.047485	0.025635	0.049927	0	0.0069485	0.0019302	0.9869213	0	0.01124191	-0.00101614	0.99972820	0	52	506	466020857	466020857	147
3.641235	-0.059265	0.016541	0.061096	0	0.0058689	0.0020199	0.9868813	0	0.00985241	-0.00123382	0.99988866	0	68	506	-70966883	-70966883	147
3.641253	-0.071472	0.016602	0.076111	0	0.0054607	0.0021858	0.9871178	0	0.00891232	-0.00142050	1.00071406	0	84	506	489791734	489791734	147
3.641324	-0.068848	0.021057	0.071411	0	0.0059757	0.0025406	0.9876690	0	0.00829768	-0.00135612	1.00145316	0	100	506	-1980287075	-1980287075	147
3.641342	-0.057495	0.018005	0.050171	0	0.0076752	0.0028458	0.9878139	0	0.00836468	-0.00116205	1.00123477	0	116	506	371455263	371455263	147
3.641359	-0.048401	0.018616	0.027832	0	0.0099869	0.0030766	0.9872169	0	0.00950813	-0.00127554	0.99993730	0	132	506	-1716610456	-1716610456	147
3.681169	-0.040833	0.024780	0.005859	0	0.0118923	0.0032616	0.9866543	0	0.01132250	-0.00135493	0.99860287	0	148	506	-527556143	-527556143	147
3.681195	-0.035156	0.026001	-0.005432	0	0.0126762	0.0033016	0.9866276	0	0.01287794	-0.00093412	0.99817276	0	164	507	-531956013	-531956013	147
3.681207	-0.029358	0.025085	0.003784	0	0.0124378	0.0032730	0.9870052	0	0.01387405	-0.00072360	0.99854493	0	180	507	-1808489541	-1808489541	147
3.681219	-0.022461	0.023621	0.017822	0	0.0118942	0.0029373	0.9876518	0	0.01436496	-0.00124264	0.99914050	0	196	507	-1058654758	-1058654758	147
3.681269	-0.019287	0.018311	0.023254	0	0.0110626	0.0022717	0.9880352	0	0.01418948	-0.00180531	0.99958897	0	212	506	1257804136	1257804136	147
3.705101	-0.017273	0.011292	0.027588	0	0.0096321	0.0019531	0.9876385	0	0.01304102	-0.00201511	1.00014019	0	228	506	1608627984	1608627984	147
3.705124	-0.011536	0.010376	0.042175	0	0.0081062	0.0021477	0.9870319	0	0.01101446	-0.00237942	1.00105405	0	244	506	-1737965097	-1737965097	147
3.705171	-0.008057	0.016479	0.058716	0	0.0071869	0.0022392	0.9871235	0	0.00919414	-0.00276303	1.00216246	0	4	506	1140521224	1140521224	147
3.729146	-0.014954	0.022522	0.054810	0	0.0071316	0.0018883	0.9876461	0	0.00852227	-0.00228190	1.00312614	0	20	506	-635843432	-635843432	147
3.729173	-0.029968	0.025024	0.038696	0	0.0077324	0.0015297	0.9875889	0	0.00875759	-0.00113487	1.00327182	0	36	506	1962425443	1962425443	147
3.729186	-0.044800	0.018005	0.041016	0	0.0083847	0.0016155	0.9867878	0	0.00920081	-0.00040984	1.00243354	0	52	506	1222091896	1222091896	147
3.753134	-0.054443	0.006836	0.051636	0	0.0090714	0.0019932	0.9863281	0	0.00951362	-0.00042224	1.00139976	0	68	507	-237123990	-237123990	147
3.753161	-0.062256	0.006287	0.036255	0	0.0103741	0.0025520	0.9868279	0	0.00986195	-0.00073385	1.00080323	0	84	507	-2122338562	-2122338562	147
3.753182	-0.069275	0.008728	0.006470	0	0.0118713	0.0031071	0.9875813	0	0.01083875	-0.00092196	1.00056982	0	100	507	518972967	518972967	147
3.777036	-0.063171	0.009094	-0.003235	0	0.0127983	0.0032921	0.9879913	0	0.01269650	-0.00067091	1.00037646	0	116	506	772690931	772690931	147
3.777112	-0.043335	0.014343	0.005859	0	0.0129433	0.0031891	0.9878254	0	0.01435375	-0.00006461	1.00058746	0	132	506	-1796795996	-1796795996	147
3.777132	-0.032898	0.016479	0.013855	0	0.0119400	0.0028152	0.9872379	0	0.01453233	0.00039434	1.00139594	0	148	506	38741366	38741366	147
3.801009	-0.047913	0.015991	0.022888	0	0.0099106	0.0020332	0.9869099	0	0.01345778	0.00036049	1.00168133	0	164	506	-1908530600	-1908530600	147
3.801190	-0.073547	0.023193	0.040710	0	0.0080566	0.0012264	0.9871407	0	0.01212597	-0.00027180	1.00102425	0	180	506	-455319728	-455319728	147
3.801207	-0.082947	0.029602	0.050537	0	0.0072823	0.0009727	0.9878006	0	0.01117325	-0.00128317	1.00058317	0	196	506	1996335269	1996335269	147
3.825010	-0.075989	0.019775	0.042542	0	0.0072994	0.0012589	0.9885654	0	0.01064658	-0.00196862	1.00110698	0	212	506	485187622	485187622	147
3.825032	-0.071228	-0.002625	0.036438	0	0.0076637	0.0017281	0.9890175	0	0.01010728	-0.00197721	1.00230336	0	228	506	-146783936	-146783936	147
3.825094	-0.071594	-0.011292	0.043884	0	0.0082550	0.0022640	0.9889107	0	0.00955534	-0.00169182	1.00330949	0	244	506	-1370482778	-1370482778	147
3.848946	-0.066040	0.008179	0.050476	0	0.0091476	0.0027237	0.9880333	0	0.00944781	-0.00133133	1.00318527	0	4	507	1464602017	1464602017	147
3.848976	-0.054565	0.029175	0.044373	0	0.0105343	0.0030384	0.9868011	0	0.01004553	-0.00083280	1.00206351	0	20	507	-572321323	-572321323	147
3.848989	-0.052185	0.027283	0.031433	0	0.0118179	0.0033245	0.9859791	0	0.01139188	-0.00035453	1.00090718	0	36	506	-1897375473	-1897375473	147
3.872923	-0.056274	0.021912	0.023132	0	0.0123158	0.0032253	0.9857025	0	0.01287317	-0.00015903	1.00030279	0	52	506	-1464090166	-1464090166	147
3.872942	-0.047913	0.030396	0.027039	0	0.0123253	0.0024872	0.9859619	0	0.01370502	-0.00026536	1.00030231	0	68	506	-509081575	-509081575	147
3.872955	-0.038574	0.034485	0.039917	0	0.0117435	0.0019646	0.9867611	0	0.01384473	-0.00035405	1.00073147	0	84	506	-1370659482	-1370659482	147
3.896915	-0.048279	0.021484	0.053040	0	0.0102711	0.0022678	0.9877319	0	0.01347852	-0.00036669	1.00140762	0	100	506	659031701	659031701	147
3.896938	-0.067810	0.009094	0.063904	0	0.0084820	0.0027142	0.9884071	0	0.01279664	-0.00077820	1.00213671	0	116	506	-1509129258	-1509129258	147
3.896952	-0.079956	0.007019	0.070679	0	0.0070591	0.0025845	0.9883366	0	0.01192498	-0.00162768	1.00254774	0	132	506	1734971509	1734971509	147
3.920882	-0.075867	0.002747	0.064392	0	0.0063877	0.0020885	0.9874687	0	0.01061606	-0.00234509	1.00235772	0	148	507	-939953177	-939953177	147
3.920937	-0.062439	0.000122	0.041565	0	0.0064564	0.0018368	0.9867268	0	0.00902796	-0.00238967	1.00194407	0	164	507	1649772272	1649772272	147
3.920949	-0.059814	0.009583	0.022095	0	0.0070686	0.0017414	0.9867706	0	0.00804877	-0.00180173	1.00184703	0	180	507	-319542457	-319542457	147
3.944836	-0.068970	0.020203	0.016968	0	0.0082912	0.0015316	0.9869461	0	0.00824118	-0.00140810	1.00211215	0	196	506	-19228131	-19228131	147
3.944865	-0.066223	0.021057	0.013794	0	0.0098515	0.0016041	0.9868317	0	0.00945807	-0.00145268	1.00255775	0	212	506	-2068455372	-2068455372	147
3.944927	-0.048889	0.013306	0.009216	0	0.0110512	0.0020180	0.9868298	0	0.01103258	-0.00130630	1.00289345	0	228	506	629135638	629135638	147
3.968792	-0.038025	0.007507	0.002014	0	0.0117798	0.0023880	0.9870148	0	0.01232719	-0.00081396	1.00274730	0	244	506	-1913462571	-1913462571	147
3.968813	-0.040283	0.012512	-0.006714	0	0.0122681	0.0025291	0.9871235	0	0.01345563	-0.00025487	1.00206423	0	4	506	2117427968	2117427968	147
3.968856	-0.047180	0.013428	-0.000549	0	0.0123158	0.0025444	0.9870815	0	0.01457691	0.00005126	1.00132871	0	20	506	-2103218284	-2103218284	147
3.992745	-0.054321	0.000488	0.022583	0	0.0118008	0.0027637	0.9870129	0	0.01526070	-0.00000262	1.00094581	0	36	507	914645182	914645182	147
3.992767	-0.065491	-0.001038	0.039856	0	0.0109329	0.0030594	0.9871693	0	0.01509094	-0.00010061	1.00076628	0	52	507	-399968563	-399968563	147
3.992779	-0.077942	0.023926	0.046204	0	0.0097847	0.0028782	0.9874210	0	0.01400471	-0.00019050	1.00043535	0	68	506	-1122557048	-1122557048	147
4.016779	-0.081604	0.043823	0.056396	0	0.0084362	0.0023804	0.9873123	0	0.01232123	-0.00052261	1.00004768	0	84	507	284573206	284573206	147
4.016844	-0.079590	0.032593	0.064697	0	0.0071964	0.0022182	0.9871559	0	0.01068616	-0.00090075	1.00033116	0	100	506	264104338	264104338	147
4.016864	-0.078918	0.017883	0.063538	0	0.0066643	0.0025063	0.9873505	0	0.00933576	-0.00097466	1.00152373	0	116	506	1443963256	1443963256	147
4.040700	-0.077332	0.020508	0.060852	0	0.0071507	0.0028954	0.9876404	0	0.00822854	-0.00092292	1.00263238	0	132	506	-996240854	-996240854	147
4.040721	-0.076294	0.018616	0.053101	0	0.0082474	0.0032425	0.9877567	0	0.00797009	-0.00097060	1.00282979	0	148	506	-450571692	-450571692	147
4.040733	-0.074280	0.011963	0.038940	0	0.0097179	0.0037842	0.9874229	0	0.00893974	-0.00099492	1.00242710	0	164	506	1256068672	1256068672	147
4.064669	-0.067993	0.018677	0.027832	0	0.0112991	0.0044613	0.9868507	0	0.01067233	-0.00087595	1.00198269	0	180	506	-473711026	-473711026	147
4.064725	-0.062561	0.022339	0.014648	0	0.0122967	0.0047054	0.9867592	0	0.01263666	-0.00056028	1.00168920	0	196	506	248073973	248073973	147
4.064738	-0.057861	0.006775	0.004395	0	0.0123405	0.0043182	0.9871883	0	0.01425529	-0.00033665	1.00134778	0	212	507	-2132103450	-2132103450	147
4.088634	-0.048767	-0.012085	0.017517	0	0.0115356	0.0036640	0.9875507	0	0.01508975	-0.00082326	1.00069189	0	228	507	455784037	455784037	147
4.088657	-0.040222	-0.019409	0.039917	0	0.0102367	0.0029202	0.9873466	0	0.01519465	-0.00191498	0.99990368	0	244	506	672117875	672117875	147
4.088708	-0.040222	-0.011841	0.048218	0	0.0087891	0.0020275	0.9867115	0	0.01457548	-0.00265646	0.99939156	0	4	507	-1577908599	-1577908599	147
4.112581	-0.049194	0.004761	0.051453	0	0.0074177	0.0013046	0.9862518	0	0.01336145	-0.00261617	0.99930525	0	20	506	-1981651877	-1981651877	147
4.112625	-0.062927	0.016296	0.055481	0	0.0064926	0.0011730	0.9863319	0	0.01212382	-0.00243354	0.99944353	0	36	506	-2072190557	-2072190557	147
4.112693	-0.072632	0.019592	0.055542	0	0.0062809	0.0014591	0.9870625	0	0.01100659	-0.00244713	0.99962091	0	52	506	-235876365	-235876365	147
4.136585	-0.067810	0.020691	0.056091	0	0.0067005	0.0016384	0.9879856	0	0.01003218	-0.00209522	0.99994564	0	68	506	313373411	313373411	147
4.136606	-0.052307	0.020386	0.046753	0	0.0076427	0.0017929	0.9884186	0	0.00962234	-0.00155091	1.00045013	0	84	506	-1566320563	-1566320563	147
4.136618	-0.044434	0.022034	0.023132	0	0.0090866	0.0022373	0.9883862	0	0.00980401	-0.00159001	1.00089025	0	100	506	-1666894102	-1666894102	147
4.160507	-0.045959	0.025818	0.011475	0	0.0106754	0.0028267	0.9879875	0	0.01078033	-0.00180912	1.00087070	0	116	507	-754863737	-754863737	147
4.160536	-0.045715	0.023499	0.019348	0	0.0120430	0.0034657	0.9872627	0	0.01279640	-0.00153184	1.00041223	0	132	507	921626570	921626570	147
4.160554	-0.045105	0.017395	0.033752	0	0.0130138	0.0039902	0.9867058	0	0.01458335	-0.00086522	1.00030422	0	148	507	267887205	267887205	147
4.184506	-0.044678	0.015625	0.047729	0	0.0132942	0.0039597	0.9864807	0	0.01492310	-0.00035691	1.00078487	0	164	507	348388986	348388986	147
4.184566	-0.039490	0.018311	0.048401	0	0.0125847	0.0033550	0.9862366	0	0.01429105	-0.00066257	1.00107098	0	180	506	215589122	215589122	147
4.184578	-0.036621	0.024048	0.038269	0	0.0106945	0.0026169	0.9860706	0	0.01342368	-0.00136209	1.00106621	0	196	506	-1047172597	-1047172597	147
4.208486	-0.047729	0.026001	0.039124	0	0.0083122	0.0021782	0.9866486	0	0.01231813	-0.00140381	1.00149059	0	212	506	383740506	383740506	147
4.208554	-0.059326	0.018860	0.056824	0	0.0063972	0.0020065	0.9879189	0	0.01068783	-0.00084734	1.00233722	0	228	506	-1564087279	-1564087279	147
4.208572	-0.057190	0.012817	0.073425	0	0.0051575	0.0018635	0.9886627	0	0.00890326	-0.00044847	1.00302315	0	244	507	-1957484780	-1957484780	147
4.232482	-0.060059	0.014221	0.069824	0	0.0050831	0.0019817	0.9884472	0	0.00799632	-0.00044990	1.00309253	0	4	506	-344992155	-344992155	147
4.232552	-0.072510	0.020264	0.057617	0	0.0064774	0.0024490	0.9881306	0	0.00809622	-0.00056529	1.00217271	0	20	506	1379330115	1379330115	147
4.232673	-0.075928	0.027954	0.051453	0	0.0084801	0.0026817	0.9878426	0	0.00870252	-0.00066733	1.00074291	0	36	507	1550083320	1550083320	147
4.256376	-0.071289	0.028931	0.032410	0	0.0102272	0.0024986	0.9873867	0	0.01006627	-0.00074935	0.99992847	0	52	507	-1563923544	-1563923544	147
4.256397	-0.065674	0.023865	0.004578	0	0.0117550	0.0024242	0.9873142	0	0.01210260	-0.00061297	1.00005603	0	68	506	535714653	535714653	147
4.256414	-0.061157	0.018860	-0.000977	0	0.0131454	0.0026150	0.9873829	0	0.01390457	-0.00038910	1.00068498	0	84	506	480426180	480426180	147
4.280381	-0.058594	0.009583	0.006592	0	0.0137787	0.0027122	0.9868774	0	0.01493502	-0.00041389	1.00138164	0	100	506	377931285	377931285	147
4.280405	-0.049561	-0.001282	0.010803	0	0.0131111	0.0025177	0.9864788	0	0.01512861	-0.00053930	1.00193310	0	116	506	1842694513	1842694513	147
4.280418	-0.040588	0.000427	0.025330	0	0.0115356	0.0022221	0.9868870	0	0.01470947	-0.00065684	1.00223231	0	132	506	602242409	602242409	147
4.304332	-0.046570	0.011658	0.048889	0	0.0098877	0.0020504	0.9876213	0	0.01394176	-0.00103259	1.00244474	0	148	506	-871503283	-871503283	147
4.304358	-0.059265	0.016052	0.067749	0	0.0083408	0.0019627	0.9879684	0	0.01266313	-0.00167847	1.00268483	0	164	507	1569771050	1569771050	147
4.304371	-0.067017	0.011719	0.082764	0	0.0067616	0.0019608	0.9875240	0	0.01090312	-0.00218654	1.00269532	0	180	506	1775861345	1775861345	147
4.328363	-0.067871	0.006165	0.088135	0	0.0056400	0.0020180	0.9867725	0	0.00933099	-0.00224519	1.00256467	0	196	507	-1906252794	-1906252794	147
4.328424	-0.063232	0.000122	0.075989	0	0.0054779	0.0019550	0.9864235	0	0.00843048	-0.00197959	1.00247860	0	212	506	1605647478	1605647478	147
4.328436	-0.062378	-0.007446	0.055115	0	0.0062733	0.0020599	0.9863701	0	0.00834322	-0.00150084	1.00229335	0	228	506	628065566	628065566	147
4.352346	-0.071167	-0.005005	0.037109	0	0.0078812	0.0025940	0.9864674	0	0.00943136	-0.00085306	1.00204968	0	244	506	269808922	269808922	147
4.352366	-0.076294	0.006714	0.025696	0	0.0100002	0.0030861	0.9865894	0	0.01152873	-0.00041866	1.00182796	0	4	506	168219011	168219011	147
4.352412	-0.069885	0.002991	0.021912	0	0.0118198	0.0032368	0.9864960	0	0.01339841	-0.00047708	1.00151181	0	20	506	168284364	168284364	147
4.376275	-0.060181	-0.016296	0.028320	0	0.0124569	0.0033836	0.9862022	0	0.01424551	-0.00080943	1.00102234	0	36	506	402530990	402530990	147
4.376295	-0.053406	-0.021118	0.035889	0	0.0120945	0.0036507	0.9860344	0	0.01458311	-0.00103378	1.00048327	0	52	506	-883414989	-883414989	147
4.376338	-0.052734	-0.006104	0.032654	0	0.0113373	0.0035248	0.9864235	0	0.01491332	-0.00109267	1.00008988	0	68	506	-1778872805	-1778872805	147
4.400265	-0.054199	0.007019	0.026733	0	0.0103130	0.0029030	0.9872208	0	0.01479435	-0.00125670	0.99991918	0	84	506	-1083631439	-1083631439	147
4.400292	-0.056641	0.011292	0.028809	0	0.0092239	0.0023613	0.9878445	0	0.01385236	-0.00153780	1.00010157	0	100	507	181653566	181653566	147
4.400305	-0.066040	0.008362	0.041809	0	0.0082932	0.0019970	0.9882469	0	0.01244688	-0.00167561	1.00069118	0	116	507	2086815221	2086815221	147
4.449196	-0.071899	-0.003967	0.064026	0	0.0074387	0.0017052	0.9885330	0	0.01097631	-0.00177097	1.00153041	0	132	507	729703461	729703461	147
4.449228	-0.062561	-0.012695	0.077942	0	0.0068874	0.0018349	0.9884434	0	0.00972104	-0.00223088	1.00238657	0	148	507	-1285864471	-1285864471	147
4.449241	-0.053650	-0.001831	0.065125	0	0.0073051	0.0024738	0.9879322	0	0.00907683	-0.00275540	1.00279188	0	164	506	-754888122	-754888122	147
4.449297	-0.058105	0.020813	0.038391	0	0.0088787	0.0031490	0.9870930	0	0.00932908	-0.00242043	1.00239849	0	180	506	-390403718	-390403718	147
4.449310	-0.061401	0.035767	0.030212	0	0.0107307	0.0035076	0.9862747	0	0.01032591	-0.00135946	1.00163651	0	196	506	1486619170	1486619170	147
4.449322	-0.054871	0.034607	0.042175	0	0.0119858	0.0036144	0.9858360	0	0.01169109	-0.00058842	1.00119114	0	212	506	-1806131669	-1806131669	147
4.513140	-0.046875	0.027405	0.050842	0	0.0127430	0.0035515	0.9854813	0	0.01311278	-0.00027394	1.00109267	0	228	506	-814699279	-814699279	147
4.513226	-0.039368	0.027039	0.046021	0	0.0131645	0.0032864	0.9851837	0	0.01400352	-0.00008202	1.00105643	0	244	506	-1745519389	-1745519389	147
4.513244	-0.028748	0.024475	0.029175	0	0.0128326	0.0028839	0.9854145	0	0.01402330	0.00001764	1.00096154	0	4	506	-1361869255	-1361869255	147
4.513262	-0.023743	0.011353	0.013550	0	0.0115032	0.0023460	0.9863434	0	0.01338267	0.00000644	1.00071311	0	20	506	1046984047	1046984047	147
4.513279	-0.031128	0.003540	0.013123	0	0.0095444	0.0017395	0.9875946	0	0.01216888	-0.00030756	1.00043178	0	36	506	580914551	580914551	147
4.513329	-0.036743	0.004272	0.025513	0	0.0075588	0.0014744	0.9882698	0	0.01066470	-0.00096107	1.00059104	0	52	507	1062297632	1062297632	147
4.513345	-0.031433	0.000488	0.046448	0	0.0060997	0.0015030	0.9881382	0	0.00946689	-0.00154948	1.00101948	0	68	506	1633155479	1633155479	147
4.513360	-0.024170	-0.003296	0.057495	0	0.0054321	0.0012722	0.9879818	0	0.00871420	-0.00206566	1.00099206	0	84	506	-1050010318	-1050010318	147
4.537024	-0.016113	0.001770	0.043091	0	0.0056057	0.0011673	0.9877186	0	0.00820613	-0.00263834	1.00090313	0	100	506	2143957128	2143957128	147
4.537052	-0.008362	0.008850	0.025452	0	0.0068493	0.0020790	0.9870472	0	0.00838614	-0.00274801	1.00112867	0	116	506	-1516339787	-1516339787	147
4.537068	-0.016296	0.013062	0.017517	0	0.0089931	0.0035820	0.9866371	0	0.00977087	-0.00206709	1.00094438	0	132	506	1526522823	1526522823	147
4.561012	-0.039978	0.018860	0.002136	0	0.0111084	0.0043430	0.9868126	0	0.01157665	-0.00103664	1.00032496	0	148	506	2020601512	2020601512	147
4.561070	-0.059143	0.021423	-0.018921	0	0.0126934	0.0039024	0.9873219	0	0.01273465	-0.00030112	0.99978447	0	164	506	-527299456	-527299456	147
4.561083	-0.064270	0.011963	-0.018860	0	0.0138302	0.0031071	0.9877434	0	0.01339769	-0.00009656	0.99937296	0	180	507	187481780	187481780	147
4.584923	-0.063354	-0.001648	0.009155	0	0.0142078	0.0028954	0.9877262	0	0.01414704	-0.00004697	0.99931860	0	196	506	771925632	771925632	147
4.584948	-0.062805	-0.007324	0.040833	0	0.0134106	0.0029831	0.9875717	0	0.01484156	0.00023770	0.99989080	0	212	506	1357208304	1357208304	147
4.584998	-0.062317	-0.004761	0.055298	0	0.0115719	0.0026779	0.9875946	0	0.01495814	0.00030541	1.00064158	0	228	506	-1305062484	-1305062484	147
4.608942	-0.064880	-0.000488	0.056580	0	0.0094395	0.0022888	0.9875298	0	0.01411033	-0.00053573	1.00114989	0	244	506	-1303567852	-1303567852	147
4.608970	-0.062439	0.006165	0.062988	0	0.0078888	0.0023117	0.9874229	0	0.01236892	-0.00160575	1.00175714	0	4	506	-370922645	-370922645	147
4.609043	-0.049866	0.020569	0.079895	0	0.0070992	0.0023823	0.9876862	0	0.01055264	-0.00186276	1.00242758	0	20	506	1399324339	1399324339	147
4.632990	-0.041626	0.031677	0.090088	0	0.0066872	0.0022087	0.9881153	0	0.00942922	-0.00177097	1.00271869	0	36	506	-1312589542	-1312589542	147
4.633016	-0.043030	0.027649	0.077698	0	0.0067844	0.0022564	0.9882851	0	0.00918818	-0.00201917	1.00245023	0	52	506	-1730817021	-1730817021	147
4.633030	-0.047363	0.019897	0.050720	0	0.0081120	0.0027142	0.9880466	0	0.00991344	-0.00212097	1.00154591	0	68	507	-773851401	-773851401	147
4.656883	-0.050110	0.018616	0.032349	0	0.0104771	0.0031071	0.9874744	0	0.01130319	-0.00158262	1.00057888	0	84	507	-510771079	-510771079	147
4.656909	-0.049072	0.020996	0.027466	0	0.0124187	0.0029888	0.9870300	0	0.01269865	-0.00075603	1.00001049	0	100	507	-1378882473	-1378882473	147
4.656928	-0.046875	0.023926	0.023926	0	0.0132542	0.0026798	0.9868393	0	0.01352382	-0.00010228	0.99922514	0	116	507	-1039775003	-1039775003	147
4.680855	-0.048645	0.025085	0.026001	0	0.0134277	0.0027657	0.9867039	0	0.01366258	0.00038028	0.99821281	0	132	506	1910752145	1910752145	147
4.680875	-0.053162	0.024658	0.038330	0	0.0129261	0.0027428	0.9868450	0	0.01360798	0.00064135	0.99803209	0	148	506	-898785016	-898785016	147
4.680887	-0.054626	0.014893	0.040344	0	0.0115032	0.0020180	0.9874363	0	0.01349092	0.00023055	0.99890852	0	164	506	-1629886378	-1629886378	147
4.704815	-0.056335	-0.004517	0.023926	0	0.0093479	0.0011635	0.9881344	0	0.01306534	-0.00078988	1.00000954	0	180	506	652478686	652478686	147
4.704891	-0.066467	-0.009460	0.016846	0	0.0072079	0.0009537	0.9881611	0	0.01216245	-0.00151253	1.00079823	0	196	506	663447065	663447065	147
4.704910	-0.078186	-0.000244	0.030518	0	0.0060081	0.0014095	0.9873314	0	0.01079702	-0.00150275	1.00112486	0	212	506	1934682374	1934682374	147
4.728776	-0.078430	-0.000183	0.044556	0	0.0057049	0.0019550	0.9866295	0	0.00948834	-0.00140619	1.00097394	0	228	506	1879566349	1879566349	147
4.728807	-0.067261	-0.001831	0.047974	0	0.0059357	0.0022640	0.9866562	0	0.00857234	-0.00161672	1.00072813	0	244	507	2126101185	2126101185	147
4.728872	-0.058167	0.006165	0.045593	0	0.0069923	0.0025749	0.9870567	0	0.00817800	-0.00194287	1.00047636	0	4	506	-84175194	-84175194	147
4.752768	-0.063782	0.015930	0.040161	0	0.0086746	0.0029850	0.9872723	0	0.00880003	-0.00230336	0.99997067	0	20	507	640140613	640140613	147
4.752790	-0.070007	0.020996	0.025269	0	0.0101891	0.0031433	0.9870777	0	0.01051641	-0.00225186	0.99964762	0	36	507	102284901	102284901	147
4.752834	-0.053650	0.016663	0.009705	0	0.0115566	0.0030785	0.9867840	0	0.01260614	-0.00157428	1.00007510	0	52	506	1685135523	1685135523	147
4.776745	-0.034119	0.006470	0.014771	0	0.0128670	0.0033150	0.9865532	0	0.01431727	-0.00082278	1.00093293	0	68	506	1328271996	1328271996	147
4.776768	-0.039429	-0.001221	0.031738	0	0.0132923	0.0036373	0.9862938	0	0.01530552	-0.00027204	1.00149274	0	84	506	-442315171	-442315171	147
4.776780	-0.049194	-0.008484	0.043030	0	0.0126781	0.0033989	0.9862137	0	0.01550412	0.00007701	1.00148582	0	100	506	1232269936	1232269936	147
4.800670	-0.044495	-0.013550	0.052734	0	0.0117054	0.0027676	0.9864616	0	0.01483130	-0.00007272	1.00125289	0	116	506	140061323	140061323	147
4.800698	-0.037415	-0.010437	0.057922	0	0.0100880	0.0024071	0.9868259	0	0.01319313	-0.00080490	1.00124311	0	132	506	-221167786	-221167786	147
4.800712	-0.034241	-0.003784	0.047791	0	0.0077362	0.0023537	0.9871998	0	0.01105857	-0.00151348	1.00149393	0	148	506	-1412661039	-1412661039	147
4.824682	-0.044678	0.002075	0.035095	0	0.0060654	0.0023861	0.9875202	0	0.00930810	-0.00177002	1.00167227	0	164	507	-297753324	-297753324	147
4.824745	-0.067749	0.006653	0.036926	0	0.0059719	0.0026493	0.9874516	0	0.00825739	-0.00178862	1.00152040	0	180	507	-1256616882	-1256616882	147
4.824760	-0.079773	0.009460	0.042480	0	0.0069599	0.0029659	0.9870014	0	0.00793505	-0.00173593	1.00106263	0	196	507	-46499363	-46499363	147
4.848639	-0.082153	0.015198	0.035156	0	0.0085716	0.0031929	0.9866848	0	0.00861430	-0.00162506	1.00072503	0	212	506	-756650094	-756650094	147
4.848717	-0.090515	0.021118	0.017700	0	0.0104885	0.0037708	0.9867401	0	0.01019621	-0.00156641	1.00113177	0	228	506	1337736214	1337736214	147
4.848736	-0.096680	0.018494	0.001709	0	0.0120964	0.0044689	0.9868813	0	0.01203203	-0.00157857	1.00191927	0	244	506	-251759063	-251759063	147
4.872602	-0.083313	0.013428	-0.009155	0	0.0130672	0.0045166	0.9868813	0	0.01362944	-0.00127792	1.00198245	0	4	506	-535125724	-535125724	147
4.872623	-0.056396	0.016113	-0.012817	0	0.0133209	0.0039425	0.9870777	0	0.01496053	-0.00058532	1.00143886	0	20	506	1695292379	1695292379	147
4.872670	-0.042419	0.018738	-0.003723	0	0.0127792	0.0031796	0.9874535	0	0.01570606	-0.00040340	1.00133157	0	36	506	-622792154	-622792154	147
4.896609	-0.050659	0.007629	0.016052	0	0.0115204	0.0025883	0.9874611	0	0.01534605	-0.00117302	1.00167179	0	52	507	801388591	801388591	147
4.896629	-0.062622	-0.006531	0.036438	0	0.0098057	0.0025711	0.9872074	0	0.01421189	-0.00198269	1.00170732	0	68	507	-51744262	-51744262	147
4.896641	-0.061218	-0.001526	0.053345	0	0.0081177	0.0026417	0.9870834	0	0.01288843	-0.00213552	1.00125551	0	84	507	1869990743	1869990743	147
4.920580	-0.049377	0.017578	0.064331	0	0.0067368	0.0022335	0.9870052	0	0.01144648	-0.00184464	1.00085092	0	100	507	1506105039	1506105039	147
4.920602	-0.039001	0.025696	0.062561	0	0.0057240	0.0020390	0.9870129	0	0.01005864	-0.00152731	1.00113797	0	116	506	-1215344919	-1215344919	147
4.920614	-0.035522	0.018677	0.052124	0	0.0055313	0.0022430	0.9871635	0	0.00911903	-0.00151253	1.00181937	0	132	506	-1826064587	-1826064587	147
4.944537	-0.036316	0.017761	0.044983	0	0.0064240	0.0022335	0.9871254	0	0.00896168	-0.00154972	1.00205970	0	148	506	120611903	120611903	147
4.944561	-0.040344	0.023743	0.051392	0	0.0079708	0.0023460	0.9870586	0	0.00990534	-0.00129771	1.00171375	0	164	506	-407736257	-407736257	147
4.944573	-0.052673	0.014099	0.060486	0	0.0099201	0.0028934	0.9872684	0	0.01168251	-0.00111651	1.00095367	0	180	506	1354854455	1354854455	147
4.968478	-0.072266	-0.001221	0.049683	0	0.0118942	0.0033112	0.9871998	0	0.01346874	-0.00106978	1.00004721	0	196	506	1292224807	1292224807	147
4.968548	-0.080139	-0.000061	0.031311	0	0.0130444	0.0030994	0.9866238	0	0.01495004	-0.00087237	0.99961567	0	212	506	-975371724	-975371724	147
4.968565	-0.066833	0.004700	0.024963	0	0.0129967	0.0023823	0.9862309	0	0.01599669	-0.00084162	1.00006008	0	228	507	-1674858593	-1674858593	147
4.992506	-0.051575	-0.000671	0.024719	0	0.0120869	0.0018425	0.9864750	0	0.01633620	-0.00142145	1.00074697	0	244	506	1301450912	1301450912	147
4.992567	-0.052368	-0.009583	0.031982	0	0.0108242	0.0018272	0.9871635	0	0.01591277	-0.00229478	1.00069737	0	4	506	-364639491	-364639491	147
4.992584	-0.058838	-0.011780	0.051270	0	0.0091553	0.0020752	0.9877701	0	0.01449299	-0.00262451	1.00030375	0	20	506	-2071775521	-2071775521	147
5.016446	-0.056519	-0.002930	0.064880	0	0.0069447	0.0022621	0.9880829	0	0.01229906	-0.00211430	1.00052452	0	36	506	-560325073	-560325073	147
5.016471	-0.054016	0.007690	0.062561	0	0.0053463	0.0022907	0.9883900	0	0.01042008	-0.00141215	1.00119638	0	52	506	-2107211671	-2107211671	147
5.016524	-0.054688	0.014832	0.059448	0	0.0053921	0.0025349	0.9886303	0	0.00955009	-0.00109887	1.00186563	0	68	506	-1499329312	-1499329312	147
5.040403	-0.050354	0.020447	0.058105	0	0.0064449	0.0030231	0.9884605	0	0.00959873	-0.00097060	1.00233197	0	84	506	-1110323786	-1110323786	147
5.040437	-0.049500	0.022461	0.049072	0	0.0079021	0.0031166	0.9879551	0	0.01009822	-0.00073814	1.00218225	0	100	506	996476207	996476207	147
5.040456	-0.055176	0.020447	0.035645	0	0.0095978	0.0027447	0.9875088	0	0.01068282	-0.00061321	1.00155616	0	116	506	-564947478	-564947478	147
5.064361	-0.052734	0.013550	0.023926	0	0.0110893	0.0025558	0.9873276	0	0.01161313	-0.00094461	1.00130463	0	132	507	-1083007575	-1083007575	147
5.064387	-0.045166	0.005127	0.016785	0	0.0122910	0.0027466	0.9869576	0	0.01303959	-0.00144076	1.00144720	0	148	507	-1899067063	-1899067063	147
5.064400	-0.042908	0.003296	0.018555	0	0.0131855	0.0029678	0.9862385	0	0.01437950	-0.00138450	1.00107622	0	164	507	534687820	534687820	147
5.088314	-0.045532	0.006348	0.030945	0	0.0133018	0.0029869	0.9862633	0	0.01523829	-0.00090456	1.00013900	0	180	506	1117560218	1117560218	147
5.088340	-0.053894	0.009644	0.041016	0	0.0120888	0.0028534	0.9875698	0	0.01563931	-0.00077891	0.99949908	0	196	506	-396337210	-396337210	147
5.088352	-0.062927	0.010986	0.039124	0	0.0099049	0.0027943	0.9885807	0	0.01517367	-0.00102615	0.99983358	0	212	506	-1919003888	-1919003888	147
5.112277	-0.062988	0.010864	0.040405	0	0.0078640	0.0027275	0.9882469	0	0.01336360	-0.00095367	1.00100708	0	228	506	2086813126	2086813126	147
5.112354	-0.060852	0.014404	0.052612	0	0.0065289	0.0022831	0.9877853	0	0.01090074	-0.00051308	1.00190878	0	244	506	1575499241	1575499241	147
5.112372	-0.069031	0.018250	0.065857	0	0.0058384	0.0016422	0.9879570	0	0.00914598	-0.00038743	1.00206232	0	4	506	-1986439088	-1986439088	147
5.136265	-0.080261	0.022095	0.067993	0	0.0057373	0.0015125	0.9879112	0	0.00843835	-0.00072289	1.00221348	0	20	506	-444698995	-444698995	147
5.136285	-0.081360	0.029236	0.046692	0	0.0064430	0.0020924	0.9874783	0	0.00823736	-0.00118899	1.00241709	0	36	507	-1962279468	-1962279468	147
5.136332	-0.065369	0.030212	0.012207	0	0.0082016	0.0027027	0.9874516	0	0.00842595	-0.00169039	1.00211930	0	52	507	-828878106	-828878106	147
5.160253	-0.041382	0.027405	-0.009949	0	0.0102959	0.0028648	0.9877815	0	0.00928545	-0.00180626	1.00166678	0	68	506	1889619262	1889619262	147
5.160278	-0.037170	0.023682	-0.013245	0	0.0117989	0.0028038	0.9876995	0	0.01080918	-0.00095367	1.00164652	0	84	507	-1545022738	-1545022738	147
5.160326	-0.049866	0.009705	-0.007019	0	0.0127964	0.0028286	0.9870033	0	0.01252246	0.00036788	1.00191569	0	100	506	-1550434806	-1550434806	147
5.209155	-0.053284	-0.006531	-0.000549	0	0.0131607	0.0028610	0.9862957	0	0.01385975	0.00104833	1.00175524	0	116	506	-292201739	-292201739	147
5.209184	-0.045959	-0.017761	0.006531	0	0.0124702	0.0027637	0.9863071	0	0.01475191	0.00093770	1.00083804	0	132	506	-353576670	-353576670	147
5.209196	-0.040283	-0.027649	0.020813	0	0.0111790	0.0026703	0.9871311	0	0.01517200	0.00067353	1.00003791	0	148	506	379465729	379465729	147
5.209243	-0.039429	-0.025208	0.039551	0	0.0098286	0.0024929	0.9880543	0	0.01452065	0.00032735	1.00036144	0	164	506	-1533957042	-1533957042	147
5.209255	-0.038208	-0.002686	0.052917	0	0.0084858	0.0021000	0.9883785	0	0.01262641	-0.00037050	1.00161052	0	180	506	-865375835	-865375835	147
5.209267	-0.041321	0.019836	0.062012	0	0.0075607	0.0018902	0.9881935	0	0.01049495	-0.00118756	1.00292611	0	196	506	675401804	675401804	147
5.273052	-0.055481	0.026245	0.073242	0	0.0073833	0.0022163	0.9881630	0	0.00906372	-0.00178790	1.00378513	0	212	507	296758064	296758064	147
5.273083	-0.067505	0.026184	0.080261	0	0.0078144	0.0027561	0.9882622	0	0.00846338	-0.00200582	1.00380206	0	228	507	-2105170787	-2105170787	147
5.273096	-0.070740	0.023865	0.073364	0	0.0086956	0.0029068	0.9877663	0	0.00885105	-0.00175643	1.00294447	0	244	507	-1100163791	-1100163791	147
5.273108	-0.077087	0.015198	0.051331	0	0.0096588	0.0027065	0.9870739	0	0.01022911	-0.00110483	1.00193977	0	4	506	23126444	23126444	147
5.273156	-0.083374	0.005432	0.023071	0	0.0106773	0.0026360	0.9870491	0	0.01208258	-0.00030971	1.00133348	0	20	506	1627663898	1627663898	147
5.273168	-0.076050	-0.001526	-0.001648	0	0.0119419	0.0027199	0.9874363	0	0.01402879	0.00021267	1.00104117	0	36	506	1234452261	1234452261	147
5.273179	-0.059326	-0.006042	-0.009460	0	0.0126781	0.0028553	0.9876003	0	0.01554513	0.00029564	1.00079179	0	52	506	1522732923	1522732923	147
5.273190	-0.044006	-0.007935	0.013367	0	0.0121555	0.0030937	0.9873886	0	0.01584554	0.00016332	1.00055838	0	68	506	-1222123157	-1222123157	147
5.297054	-0.040283	-0.005981	0.042358	0	0.0108166	0.0030499	0.9871960	0	0.01481724	-0.00002670	1.00054693	0	84	506	-1493784587	-1493784587	147
5.297077	-0.054443	-0.002747	0.046692	0	0.0093231	0.0025311	0.9874172	0	0.01319027	-0.00056529	1.00072885	0	100	506	-2090258841	-2090258841	147
5.297091	-0.070557	-0.009338	0.041260	0	0.0080547	0.0020943	0.9878197	0	0.01155114	-0.00148439	1.00101924	0	116	507	90641105	90641105	147
5.321014	-0.073486	-0.024292	0.043579	0	0.0071526	0.0018730	0.9879532	0	0.00982761	-0.00190663	1.00153875	0	132	507	519921640	519921640	147
5.321035	-0.065369	-0.028687	0.047729	0	0.0067081	0.0016422	0.9878654	0	0.00801802	-0.00141406	1.00214791	0	148	506	-1739577944	-1739577944	147
5.321048	-0.047363	-0.017090	0.047913	0	0.0070858	0.0017796	0.9877148	0	0.00693965	-0.00074315	1.00249004	0	164	506	257035225	257035225	147
5.344977	-0.031799	0.003357	0.044922	0	0.0082130	0.0024605	0.9874306	0	0.00768566	-0.00061274	1.00249600	0	180	506	1468529574	1468529574	147
5.345032	-0.041870	0.018799	0.038452	0	0.0095978	0.0030518	0.9870358	0	0.01017427	-0.00111127	1.00222158	0	196	506	1988519011	1988519011	147
5.345045	-0.069946	0.019348	0.027466	0	0.0109940	0.0032539	0.9866390	0	0.01296377	-0.00142097	1.00142360	0	212	506	-779667439	-779667439	147
5.368926	-0.084473	0.018616	0.019714	0	0.0121765	0.0033302	0.9864693	0	0.01478791	-0.00077271	1.00003743	0	228	506	1478079478	1478079478	147
5.368947	-0.081177	0.017822	0.018982	0	0.0130959	0.0032806	0.9866676	0	0.01561928	-0.00009084	0.99891233	0	244	506	-113685150	-113685150	147
5.368994	-0.081909	0.003052	0.023987	0	0.0133705	0.0029697	0.9869061	0	0.01589179	-0.00025582	0.99891615	0	4	506	-22288833	-22288833	147
5.392955	-0.086365	-0.012024	0.037659	0	0.0123158	0.0024719	0.9869308	0	0.01562095	-0.00065255	0.99981475	0	20	506	736449671	736449671	147
5.392996	-0.077942	-0.011047	0.050598	0	0.0103683	0.0022316	0.9868584	0	0.01476812	-0.00103927	1.00095844	0	36	507	789301398	789301398	147
5.393050	-0.062134	-0.000061	0.055298	0	0.0085735	0.0024929	0.9868412	0	0.01332164	-0.00170970	1.00180483	0	52	507	1050801511	1050801511	147
5.416893	-0.048950	0.007385	0.058960	0	0.0071392	0.0025749	0.9870796	0	0.01143432	-0.00233436	1.00191116	0	68	506	848804457	848804457	147
5.416920	-0.043823	0.004089	0.065674	0	0.0059891	0.0021572	0.9876442	0	0.00959730	-0.00253367	1.00150180	0	84	506	-1902597409	-1902597409	147
5.416938	-0.052002	0.002014	0.073242	0	0.0056286	0.0018864	0.9882107	0	0.00835061	-0.00252438	1.00103068	0	100	506	-1007550182	-1007550182	147
5.440817	-0.058228	0.008972	0.076843	0	0.0063820	0.0019245	0.9884224	0	0.00817800	-0.00255561	1.00052214	0	116	506	1422277358	1422277358	147
5.440839	-0.053711	0.017273	0.073242	0	0.0078716	0.0020256	0.9882965	0	0.00890517	-0.00234938	1.00011873	0	132	506	-451804543	-451804543	147
5.440851	-0.051941	0.024841	0.055786	0	0.0094147	0.0023098	0.9879246	0	0.01003361	-0.00179887	0.99994516	0	148	507	-325457719	-325457719	147
5.464821	-0.052490	0.030701	0.023254	0	0.0107746	0.0028496	0.9873676	0	0.01157165	-0.00142002	0.99965739	0	164	506	-1241199498	-1241199498	147
5.464884	-0.053406	0.028687	-0.003723	0	0.0121193	0.0034904	0.9869347	0	0.01329732	-0.00125170	0.99928999	0	180	506	-1905734563	-1905734563	147
5.464897	-0.059265	0.018799	-0.004211	0	0.0129871	0.0038433	0.9867077	0	0.01460218	-0.00080729	0.99960399	0	196	506	-572027896	-572027896	147
5.488776	-0.064148	0.006042	0.015869	0	0.0126953	0.0034885	0.9863796	0	0.01508904	-0.00037098	1.00034952	0	212	506	1909397688	1909397688	147
5.488841	-0.067444	-0.004456	0.035645	0	0.0114269	0.0029011	0.9862366	0	0.01477623	-0.00057387	1.00033855	0	228	507	-1403351209	-1403351209	147
5.488854	-0.064636	-0.005493	0.046692	0	0.0100117	0.0026951	0.9869308	0	0.01394582	-0.00114083	0.99994802	0	244	506	-932504256	-932504256	147
5.512756	-0.048462	-0.000244	0.050598	0	0.0087662	0.0024700	0.9880104	0	0.01257753	-0.00152922	1.00021410	0	4	506	-1106562315	-1106562315	147
5.512784	-0.036560	0.002319	0.049927	0	0.0074520	0.0020218	0.9886017	0	0.01089621	-0.00184631	1.00081086	0	20	506	793889495	793889495	147
5.512870	-0.041931	0.009338	0.053589	0	0.0065784	0.0018291	0.9886971	0	0.00962138	-0.00212550	1.00117278	0	36	506	-590620619	-590620619	147
5.536715	-0.050903	0.023621	0.061707	0	0.0068150	0.0020351	0.9886169	0	0.00901508	-0.00216532	1.00131464	0	52	506	-56200233	-56200233	147
5.536741	-0.054016	0.031067	0.061157	0	0.0081444	0.0025730	0.9882259	0	0.00893712	-0.00212359	1.00122333	0	68	506	-1226878320	-1226878320	147
5.536789	-0.055359	0.031250	0.050537	0	0.0100307	0.0034065	0.9874325	0	0.00933814	-0.00207353	1.00087714	0	84	506	1560597074	1560597074	147
5.560695	-0.059082	0.027100	0.037476	0	0.0115833	0.0039406	0.9869251	0	0.01049161	-0.00169516	1.00043726	0	100	507	-1165676067	-1165676067	147
5.560724	-0.066162	0.012512	0.021667	0	0.0125504	0.0038490	0.9868870	0	0.01249027	-0.00092959	1.00009012	0	116	506	782930937	782930937	147
5.560737	-0.069763	0.001526	0.008362	0	0.0132256	0.0036049	0.9867516	0	0.01438117	-0.00015235	1.00007534	0	132	507	560832666	560832666	147
5.584635	-0.057922	0.007263	0.008240	0	0.0133305	0.0033245	0.9865513	0	0.01498604	0.00043106	1.00037479	0	148	506	-207698596	-207698596	147
5.584663	-0.037903	0.018921	0.017761	0	0.0123978	0.0027523	0.9864712	0	0.01438808	0.00096369	1.00054932	0	164	506	837933030	837933030	147
5.584681	-0.033691	0.026428	0.025452	0	0.0106049	0.0020542	0.9864197	0	0.01341057	0.00121832	1.00044537	0	180	506	930808604	930808604	147
5.608599	-0.048950	0.025635	0.027893	0	0.0087032	0.0017033	0.9864120	0	0.01227641	0.00065732	1.00047851	0	196	506	-1643215976	-1643215976	147
5.608676	-0.067078	0.019226	0.032776	0	0.0072346	0.0017967	0.9866447	0	0.01112342	-0.00058794	1.00067830	0	212	506	-2014132954	-2014132954	147
5.608694	-0.076294	0.017944	0.043091	0	0.0060692	0.0020447	0.9873962	0	0.01029682	-0.00172186	1.00070167	0	228	507	659106394	659106394	147
5.632597	-0.074707	0.024597	0.047607	0	0.0054970	0.0024776	0.9884224	0	0.00979495	-0.00204372	1.00103259	0	244	507	-886047527	-886047527	147
5.632653	-0.070557	0.030029	0.038452	0	0.0061550	0.0030785	0.9890652	0	0.00968099	-0.00172830	1.00213790	0	4	507	1236177327	1236177327	147
5.632666	-0.068787	0.028748	0.024109	0	0.0078697	0.0033779	0.9890175	0	0.01001835	-0.00137281	1.00312638	0	20	507	1303086057	1303086057	147
5.656553	-0.062683	0.025024	0.016174	0	0.0099926	0.0032444	0.9884167	0	0.01091552	-0.00107670	1.00316858	0	36	506	848565366	848565366	147
5.656576	-0.055359	0.020203	0.013733	0	0.0119095	0.0030785	0.9876976	0	0.01250815	-0.00104928	1.00263333	0	52	506	-1893699645	-1893699645	147
5.656624	-0.057068	0.015869	0.011902	0	0.0131493	0.0029831	0.9872532	0	0.01396942	-0.00157928	1.00190067	0	68	506	275893090	275893090	147
5.680505	-0.063904	0.010559	0.015320	0	0.0133591	0.0028706	0.9869137	0	0.01451969	-0.00232172	1.00109792	0	84	506	-1573761524	-1573761524	147
5.680531	-0.059753	-0.006958	0.032043	0	0.0124989	0.0027847	0.9863625	0	0.01459813	-0.00286150	1.00049043	0	100	506	-460201678	-460201678	147
5.680547	-0.044495	-0.026123	0.054321	0	0.0111313	0.0025520	0.9861031	0	0.01453924	-0.00296879	1.00023127	0	116	506	123160646	123160646	147
5.704478	-0.040649	-0.024414	0.067261	0	0.0096264	0.0023155	0.9867496	0	0.01395440	-0.00257683	1.00038218	0	132	506	233381010	233381010	147
5.704508	-0.054932	-0.009766	0.076355	0	0.0079975	0.0022926	0.9876881	0	0.01253080	-0.00192356	1.00096416	0	148	506	-290887208	-290887208	147
5.704522	-0.068542	0.002991	0.084656	0	0.0065193	0.0022011	0.9881859	0	0.01075912	-0.00129962	1.00172186	0	164	506	-68535435	-68535435	147
5.728496	-0.071411	0.008423	0.083557	0	0.0056534	0.0019760	0.9884510	0	0.00946021	-0.00093436	1.00210905	0	180	507	-810937625	-810937625	147
5.728519	-0.070984	0.003723	0.077271	0	0.0056362	0.0017452	0.9886990	0	0.00885916	-0.00072360	1.00187254	0	196	506	-1128612723	-1128612723	147
5.728532	-0.073547	0.001282	0.062988	0	0.0064678	0.0015755	0.9886494	0	0.00888968	-0.00050616	1.00124335	0	212	506	-237797445	-237797445	147
5.752450	-0.075806	0.006165	0.035706	0	0.0082111	0.0018330	0.9879837	0	0.00941777	-0.00055480	1.00082994	0	228	506	-1094277158	-1094277158	147
5.752510	-0.069153	0.006287	0.009644	0	0.0102825	0.0027313	0.9871597	0	0.01028466	-0.00082684	1.00094318	0	244	506	-167584729	-167584729	147
5.752522	-0.058716	0.001221	-0.002991	0	0.0118027	0.0037670	0.9868755	0	0.01152039	-0.00066280	1.00099063	0	4	506	1774527422	1774527422	147
5.776401	-0.062988	-0.002991	-0.003052	0	0.0128136	0.0041256	0.9869366	0	0.01300120	0.00026274	1.00062847	0	20	506	5851985	5851985	147
5.776420	-0.078918	-0.008362	-0.000671	0	0.0134449	0.0036030	0.9870052	0	0.01428008	0.00106764	1.00011134	0	36	506	-1784952646	-1784952646	147
5.776469	-0.079834	-0.014709	0.007019	0	0.0130997	0.0026855	0.9872322	0	0.01473713	0.00067759	0.99960971	0	52	506	63458368	63458368	147
5.800391	-0.059265	-0.011047	0.027100	0	0.0116482	0.0019474	0.9875603	0	0.01397538	-0.00041771	0.99936724	0	68	506	424361622	424361622	147
5.800414	-0.044189	0.003357	0.037842	0	0.0096474	0.0017109	0.9876328	0	0.01229644	-0.00118661	0.99941826	0	84	507	-162783207	-162783207	147
5.800459	-0.045654	0.013977	0.043152	0	0.0075626	0.0018806	0.9874630	0	0.01047230	-0.00158143	0.99957991	0	100	506	-70878852	-70878852	147
5.824347	-0.044189	0.014282	0.069336	0	0.0061855	0.0020638	0.9873295	0	0.00926161	-0.00176716	1.00008965	0	116	506	264841750	264841750	147
5.824371	-0.036438	0.005188	0.091858	0	0.0059986	0.0023041	0.9871807	0	0.00905752	-0.00150990	1.00097942	0	132	506	1136073019	1136073019	147
5.824384	-0.034973	-0.002625	0.086365	0	0.0065746	0.0027218	0.9868984	0	0.00959396	-0.00103855	1.00136328	0	148	506	-1566943324	-1566943324	147
5.848314	-0.043762	0.004456	0.067322	0	0.0079117	0.0028439	0.9866848	0	0.01013017	-0.00088787	1.00057912	0	164	506	-1265554434	-1265554434	147
5.848340	-0.059204	0.014282	0.045349	0	0.0100174	0.0026474	0.9866791	0	0.01026034	-0.00067258	0.99925542	0	180	506	-1975564223	-1975564223	147
5.848358	-0.065857	0.010376	0.028748	0	0.0118580	0.0027218	0.9867172	0	0.01063299	-0.00006819	0.99841452	0	196	506	1053205798	1053205798	147
5.872311	-0.052734	0.003723	0.029724	0	0.0125675	0.0031528	0.9868946	0	0.01189160	0.00019670	0.99856615	0	212	506	595984353	595984353	147
5.872369	-0.030334	0.007874	0.037231	0	0.0123596	0.0036011	0.9871902	0	0.01321030	-0.00015402	0.99930882	0	228	506	-1319855518	-1319855518	147
5.872382	-0.016602	0.014893	0.031921	0	0.0114956	0.0037384	0.9871464	0	0.01371002	-0.00056005	0.99958014	0	244	507	-274887255	-274887255	147
5.896254	-0.022217	0.011536	0.027283	0	0.0101490	0.0034828	0.9869347	0	0.01356983	-0.00080776	0.99944305	0	4	507	-21415144	-21415144	147
5.896309	-0.042969	-0.001526	0.035889	0	0.0087452	0.0030594	0.9871845	0	0.01278472	-0.00097442	0.99972987	0	20	507	-565528583	-565528583	147
5.896322	-0.064026	-0.009644	0.044434	0	0.0073452	0.0026131	0.9877872	0	0.01115441	-0.00108433	1.00030231	0	36	506	2276275	2276275	147
5.920266	-0.075684	0.000305	0.051025	0	0.0060959	0.0021820	0.9881992	0	0.00912738	-0.00133705	1.00096178	0	52	506	-225346440	-225346440	147
5.920298	-0.080322	0.017639	0.063171	0	0.0055733	0.0019798	0.9884205	0	0.00758553	-0.00151944	1.00203371	0	68	506	802699902	802699902	147
5.920345	-0.080200	0.022156	0.078552	0	0.0060501	0.0022507	0.9884319	0	0.00701022	-0.00099301	1.00311756	0	84	506	1070304546	1070304546	147
5.969148	-0.072571	0.018738	0.083069	0	0.0074062	0.0028896	0.9879341	0	0.00745177	-0.00028682	1.00322437	0	100	506	-2126672992	-2126672992	147
5.969171	-0.065796	0.015686	0.067139	0	0.0092487	0.0034542	0.9872971	0	0.00879693	-0.00054121	1.00240731	0	116	507	-1557948733	-1557948733	147
5.969215	-0.068481	0.010681	0.044189	0	0.0109730	0.0037041	0.9869518	0	0.01060128	-0.00142622	1.00160074	0	132	506	-949504206	-949504206	147
5.969228	-0.071899	0.015137	0.027039	0	0.0123653	0.0036983	0.9868088	0	0.01244354	-0.00187826	1.00094223	0	148	506	-1593896601	-1593896601	147
5.969240	-0.062256	0.029724	0.014465	0	0.0135574	0.0035858	0.9866734	0	0.01403809	-0.00172639	1.00013661	0	164	507	-1016205551	-1016205551	147
5.969252	-0.037720	0.028503	0.008850	0	0.0139809	0.0034790	0.9865627	0	0.01519775	-0.00129962	0.99953723	0	180	507	1126200580	1126200580	147
6.049084	-0.020508	0.007751	0.012817	0	0.0131016	0.0032196	0.9867954	0	0.01572561	-0.00099730	0.99954033	0	196	506	-501049186	-501049186	147
6.049117	-0.026489	-0.004761	0.024963	0	0.0115490	0.0028210	0.9873028	0	0.01508117	-0.00128555	0.99999452	0	212	506	787727868	787727868	147
6.049130	-0.041626	-0.001465	0.044189	0	0.0097656	0.0025749	0.9876423	0	0.01338267	-0.00195718	1.00062943	0	228	506	1185293540	1185293540	147
6.049142	-0.055237	0.001587	0.058167	0	0.0077724	0.0024109	0.9879322	0	0.01169562	-0.00242829	1.00130534	0	244	506	173790231	173790231	147
6.049201	-0.065674	0.003784	0.061584	0	0.0062256	0.0022583	0.9884033	0	0.01038861	-0.00270510	1.00185180	0	4	507	1493743478	1493743478	147
6.049214	-0.063721	0.008667	0.068970	0	0.0059528	0.0023174	0.9886322	0	0.00937390	-0.00274587	1.00217319	0	20	506	-189781645	-189781645	147
6.049225	-0.044739	0.011414	0.073608	0	0.0069523	0.0024109	0.9884243	0	0.00923276	-0.00212502	1.00211954	0	36	507	609557396	609557396	147
6.049257	-0.026794	0.017639	0.058655	0	0.0084019	0.0025311	0.9880962	0	0.00991797	-0.00126505	1.00159931	0	52	507	1724591061	1724591061	147
6.049269	-0.029541	0.022644	0.037659	0	0.0098095	0.0030041	0.9877567	0	0.01077199	-0.00127006	1.00102377	0	68	507	2041387439	2041387439	147
6.049281	-0.045227	0.016052	0.023987	0	0.0113525	0.0033035	0.9873314	0	0.01204014	-0.00201535	1.00070095	0	84	507	-810864279	-810864279	147
6.072970	-0.058105	0.011047	0.009705	0	0.0128841	0.0030251	0.9869556	0	0.01361489	-0.00233984	1.00047207	0	100	507	357708796	357708796	147
6.073024	-0.063110	0.008667	-0.008118	0	0.0137215	0.0027180	0.9867744	0	0.01457000	-0.00193357	1.00024152	0	116	506	440733067	440733067	147
6.073039	-0.062134	-0.000488	-0.020020	0	0.0133247	0.0025234	0.9865208	0	0.01492977	-0.00137186	1.00015736	0	132	506	-874898652	-874898652	147
6.096979	-0.059265	-0.006104	-0.014832	0	0.0116405	0.0022736	0.9862766	0	0.01495910	-0.00100160	1.00028944	0	148	506	1071034859	1071034859	147
6.097000	-0.054138	-0.005981	0.007751	0	0.0093040	0.0021000	0.9867020	0	0.01405835	-0.00084376	1.00050068	0	164	506	752860335	752860335	147
6.097050	-0.048035	-0.005920	0.035767	0	0.0073586	0.0019245	0.9874420	0	0.01221752	-0.00107360	1.00089455	0	180	506	-1264299675	-1264299675	147
6.120965	-0.040771	0.001282	0.057983	0	0.0062885	0.0016556	0.9878387	0	0.01044202	-0.00156164	1.00156736	0	196	506	-683861505	-683861505	147
6.120987	-0.029480	0.018250	0.073120	0	0.0060120	0.0015144	0.9884644	0	0.00929999	-0.00178409	1.00220585	0	212	506	-442236248	-442236248	147
6.121031	-0.021606	0.035156	0.083069	0	0.0065937	0.0017548	0.9891529	0	0.00881839	-0.00161648	1.00254941	0	228	506	2139005026	2139005026	147
6.144911	-0.021790	0.041626	0.079651	0	0.0078850	0.0024776	0.9888248	0	0.00924993	-0.00128651	1.00245976	0	244	506	614246305	614246305	147
6.144931	-0.024902	0.034424	0.057312	0	0.0094261	0.0033836	0.9878864	0	0.01054788	-0.00106812	1.00189781	0	4	507	1306969674	1306969674	147
6.144943	-0.032410	0.028503	0.031189	0	0.0109444	0.0038548	0.9870052	0	0.01208901	-0.00106859	1.00133395	0	20	506	874586434	874586434	147
6.168882	-0.046021	0.032715	0.017822	0	0.0120678	0.0037346	0.9859791	0	0.01355720	-0.00089049	1.00117779	0	36	506	2114548025	2114548025	147
6.168909	-0.057739	0.031860	0.017700	0	0.0124912	0.0034790	0.9855309	0	0.01483560	-0.00016165	1.00114179	0	52	506	-1768461440	-1768461440	147
6.168927	-0.059021	0.028503	0.024475	0	0.0125275	0.0033855	0.9864693	0	0.01530385	0.00047374	1.00081038	0	68	506	-230132249	-230132249	147
6.192856	-0.050781	0.030273	0.028870	0	0.0122337	0.0034714	0.9876537	0	0.01472759	0.00021410	1.00028324	0	84	506	1357099211	1357099211	147
6.192917	-0.047974	0.021179	0.025513	0	0.0109558	0.0037041	0.9877453	0	0.01367283	-0.00056982	1.00022650	0	100	506	1130085682	1130085682	147
6.192929	-0.054504	-0.000549	0.028076	0	0.0088310	0.0036793	0.9874058	0	0.01235414	-0.00122404	1.00079203	0	116	506	-454753272	-454753272	147
6.216822	-0.055969	-0.011597	0.048035	0	0.0069408	0.0031166	0.9876308	0	0.01077843	-0.00157642	1.00119543	0	132	507	-1492724732	-1492724732	147
6.216883	-0.058105	-0.002014	0.061462	0	0.0058594	0.0025158	0.9880180	0	0.00924039	-0.00169253	1.00123596	0	148	507	2091259326	2091259326	147
6.216896	-0.069275	0.014465	0.050903	0	0.0056763	0.0023746	0.9879951	0	0.00810099	-0.00164509	1.00139189	0	164	507	-520678098	-520678098	147
6.240838	-0.073669	0.023499	0.038513	0	0.0065956	0.0026684	0.9877472	0	0.00779986	-0.00126171	1.00167513	0	180	506	406402896	406402896	147
6.240859	-0.070007	0.023865	0.036865	0	0.0083523	0.0032310	0.9874058	0	0.00842142	-0.00059414	1.00205755	0	196	506	-754207768	-754207768	147
6.240907	-0.067566	0.024475	0.035156	0	0.0100307	0.0038090	0.9868107	0	0.00963569	-0.00033331	1.00237012	0	212	506	984389816	984389816	147
6.264812	-0.060791	0.028931	0.029602	0	0.0111217	0.0040150	0.9862804	0	0.01122332	-0.00093985	1.00194907	0	228	506	-614707160	-614707160	147
6.264839	-0.048584	0.031067	0.024231	0	0.0119362	0.0035877	0.9860706	0	0.01303935	-0.00178933	1.00110102	0	244	506	1485192297	1485192297	147
6.264851	-0.042908	0.027161	0.020325	0	0.0125427	0.0027981	0.9859734	0	0.01464510	-0.00214505	1.00073934	0	4	507	711365048	711365048	147
6.288766	-0.045349	0.023132	0.017334	0	0.0125599	0.0023193	0.9860516	0	0.01557708	-0.00193501	1.00059867	0	20	507	1865878280	1865878280	147
6.288793	-0.050903	0.020325	0.022278	0	0.0117340	0.0025406	0.9863243	0	0.01552916	-0.00122762	1.00021625	0	36	507	1429818411	1429818411	147
6.288813	-0.060974	0.011414	0.034058	0	0.0098534	0.0030937	0.9867630	0	0.01428461	-0.00053000	1.00021076	0	52	507	1833519718	1833519718	147
6.312712	-0.066956	0.002380	0.041321	0	0.0074081	0.0031300	0.9873734	0	0.01243925	-0.00039124	1.00091958	0	68	507	-81039790	-81039790	147
6.312733	-0.063538	0.001587	0.050537	0	0.0055408	0.0026360	0.9876194	0	0.01101637	-0.00056195	1.00133300	0	84	506	-188953233	-188953233	147
6.312746	-0.060913	0.006592	0.065979	0	0.0049915	0.0024948	0.9873791	0	0.01002169	-0.00075412	1.00091982	0	100	506	1687409384	1687409384	147
6.336668	-0.059509	0.016602	0.074097	0	0.0057697	0.0028954	0.9873009	0	0.00903368	-0.00118566	1.00065660	0	116	506	1642120643	1642120643	147
6.336736	-0.051941	0.023315	0.072083	0	0.0071144	0.0032902	0.9874191	0	0.00873065	-0.00193524	1.00101900	0	132	506	-1763952885	-1763952885	147
6.336748	-0.041687	0.021851	0.061096	0	0.0083618	0.0034447	0.9873676	0	0.00971365	-0.00243974	1.00127149	0	148	506	-116927444	-116927444	147
6.360658	-0.038391	0.017395	0.040161	0	0.0097294	0.0035553	0.9874477	0	0.01117206	-0.00235820	1.00098610	0	164	506	-1362921876	-1362921876	147
6.360712	-0.039612	0.009888	0.023865	0	0.0113010	0.0036888	0.9876804	0	0.01260209	-0.00195169	1.00047660	0	180	506	-27171957	-27171957	147
6.360725	-0.037476	0.004578	0.020020	0	0.0123672	0.0035706	0.9875031	0	0.01414180	-0.00131178	1.00004482	0	196	507	-1423742760	-1423742760	147
6.384596	-0.040527	0.008179	0.017822	0	0.0124226	0.0033131	0.9869537	0	0.01522708	-0.00051332	0.99978089	0	212	507	475008978	475008978	147
6.384618	-0.053711	0.013306	0.014465	0	0.0117836	0.0034199	0.9866352	0	0.01536584	0.00000167	0.99970412	0	228	507	-1338766798	-1338766798	147
6.384678	-0.061768	0.009583	0.017639	0	0.0107651	0.0036812	0.9870167	0	0.01470661	0.00000715	0.99994516	0	244	507	-84448325	-84448325	147
6.408629	-0.057434	0.002014	0.028992	0	0.0093288	0.0035419	0.9876137	0	0.01341939	-0.00026608	1.00053215	0	4	506	-1929032747	-1929032747	147
6.408658	-0.056824	0.003296	0.040039	0	0.0078144	0.0029964	0.9876156	0	0.01175451	-0.00082326	1.00107980	0	20	506	706305791	706305791	147
6.408677	-0.068115	0.014465	0.046509	0	0.0067577	0.0025120	0.9875145	0	0.01012874	-0.00159168	1.00140548	0	36	506	-824366325	-824366325	147
6.432592	-0.076782	0.029480	0.052856	0	0.0064011	0.0023804	0.9878445	0	0.00886416	-0.00203395	1.00148177	0	52	506	-960648703	-960648703	147
6.432678	-0.072754	0.043518	0.057251	0	0.0070362	0.0025826	0.9881477	0	0.00825977	-0.00209093	1.00119591	0	68	507	-1690463192	-1690463192	147
6.432691	-0.061951	0.049622	0.052002	0	0.0085182	0.0031910	0.9880638	0	0.00885534	-0.00206828	1.00087190	0	84	506	1531407399	1531407399	147
6.456574	-0.055603	0.042419	0.036255	0	0.0102158	0.0038567	0.9876423	0	0.01051664	-0.00177073	1.00077677	0	100	506	1735794760	1735794760	147
6.456599	-0.055481	0.027710	0.023926	0	0.0117340	0.0041370	0.9870663	0	0.01220632	-0.00109339	1.00067854	0	116	506	-248221091	-248221091	147
6.456611	-0.055176	0.017578	0.022583	0	0.0128384	0.0040874	0.9864712	0	0.01357341	-0.00062060	1.00031376	0	132	507	-2076395709	-2076395709	147
6.480540	-0.051636	0.009644	0.022278	0	0.0133419	0.0036507	0.9862442	0	0.01456761	-0.00056624	0.99994040	0	148	507	-796166445	-796166445	147
6.480616	-0.048157	-0.007629	0.021606	0	0.0129986	0.0028114	0.9866123	0	0.01480103	-0.00049901	1.00015521	0	164	506	-271021352	-271021352	147
6.480634	-0.052185	-0.024841	0.021423	0	0.0115891	0.0018444	0.9869804	0	0.01434469	-0.00056553	1.00065923	0	180	506	1357977970	1357977970	147
6.504491	-0.060974	-0.024780	0.020569	0	0.0095654	0.0012798	0.9872570	0	0.01339650	-0.00097537	1.00071716	0	196	506	-674266155	-674266155	147
6.504516	-0.060913	-0.015381	0.033020	0	0.0080013	0.0014038	0.9877987	0	0.01190162	-0.00107670	1.00057220	0	212	506	727848375	727848375	147
6.504565	-0.052734	-0.010681	0.056213	0	0.0072556	0.0017109	0.9879570	0	0.00991464	-0.00070047	1.00083828	0	228	506	281262455	281262455	147
6.528516	-0.049744	-0.002808	0.067322	0	0.0068722	0.0018635	0.9874382	0	0.00817180	-0.00051403	1.00153923	0	244	506	1922888197	1922888197	147
6.528554	-0.053650	0.014038	0.066589	0	0.0069599	0.0021496	0.9872341	0	0.00759721	-0.00073433	1.00204110	0	4	506	-912652967	-912652967	147
6.528635	-0.051575	0.026855	0.059692	0	0.0079918	0.0025387	0.9877586	0	0.00798869	-0.00099516	1.00166869	0	20	507	-1211859990	-1211859990	147
6.552494	-0.042419	0.029419	0.034973	0	0.0096474	0.0027771	0.9880219	0	0.00883436	-0.00094581	1.00054002	0	36	506	-1604599187	-1604599187	147
6.552516	-0.041199	0.026367	0.004028	0	0.0111542	0.0030060	0.9872570	0	0.01044440	-0.00051570	0.99945498	0	52	506	1057107879	1057107879	147
6.552528	-0.051147	0.023071	-0.003235	0	0.0121193	0.0033245	0.9862270	0	0.01272035	0.00011706	0.99902105	0	68	506	-1254817813	-1254817813	147
6.576422	-0.056213	0.025085	0.003418	0	0.0125942	0.0034752	0.9858913	0	0.01453209	0.00067735	0.99902487	0	84	506	575036382	575036382	147
6.576447	-0.044006	0.024109	0.000366	0	0.0127525	0.0032921	0.9860668	0	0.01520419	0.00092959	0.99906564	0	100	506	523618919	523618919	147
6.576460	-0.026855	0.007019	0.001953	0	0.0124359	0.0030117	0.9864216	0	0.01519275	0.00068545	0.99926519	0	116	506	1866348782	1866348782	147
6.600401	-0.023010	-0.012390	0.022400	0	0.0112476	0.0029144	0.9870243	0	0.01481986	0.00000906	0.99968624	0	132	506	1681941083	1681941083	147
6.600462	-0.031738	-0.009338	0.043640	0	0.0091305	0.0030403	0.9874840	0	0.01374459	-0.00075030	1.00020909	0	148	506	-641402891	-641402891	147
6.600475	-0.040894	0.004578	0.050842	0	0.0068951	0.0032501	0.9874077	0	0.01213026	-0.00154924	1.00075245	0	164	507	1871911704	1871911704	147
6.624405	-0.043335	0.005249	0.055237	0	0.0059566	0.0032940	0.9874592	0	0.01064825	-0.00228214	1.00105786	0	180	506	-817134070	-817134070	147
6.624483	-0.044739	0.001953	0.068787	0	0.0064926	0.0031929	0.9878654	0	0.00951004	-0.00227308	1.00126791	0	196	507	828062507	828062507	147
6.624501	-0.050659	0.008423	0.076965	0	0.0073624	0.0032616	0.9876766	0	0.00893164	-0.00162840	1.00165820	0	212	507	1775434320	1775434320	147
6.648321	-0.058105	0.019409	0.062317	0	0.0082722	0.0034866	0.9870720	0	0.00949717	-0.00126386	1.00188947	0	228	506	-2002778625	-2002778625	147
6.648354	-0.062866	0.027832	0.037354	0	0.0096283	0.0037365	0.9869022	0	0.01103330	-0.00128341	1.00168562	0	244	506	146256343	146256343	147
6.648429	-0.061890	0.030640	0.024719	0	0.0111332	0.0041790	0.9869404	0	0.01248550	-0.00144148	1.00113750	0	4	506	-617435191	-617435191	147
6.672341	-0.063293	0.028015	0.030151	0	0.0123672	0.0046139	0.9868069	0	0.01346302	-0.00162888	1.00060058	0	20	506	-743741671	-743741671	147
6.672361	-0.072510	0.022644	0.043396	0	0.0132885	0.0045052	0.9864101	0	0.01435304	-0.00155997	1.00040221	0	36	506	-1519358825	-1519358825	147
6.672373	-0.074402	0.015015	0.046875	0	0.0134411	0.0038795	0.9859028	0	0.01509809	-0.00120974	1.00026560	0	52	506	1529437214	1529437214	147
6.696302	-0.064880	0.004883	0.043457	0	0.0123463	0.0031986	0.9858017	0	0.01508760	-0.00089550	1.00006819	0	68	506	673547321	673547321	147
6.696325	-0.057983	-0.005493	0.051636	0	0.0101852	0.0025444	0.9861012	0	0.01402116	-0.00074434	1.00019431	0	84	507	-1716614001	-1716614001	147
6.696338	-0.056824	-0.010559	0.062988	0	0.0077381	0.0017872	0.9864388	0	0.01208806	-0.00055695	1.00065088	0	100	507	-1655165788	-1655165788	147
6.720280	-0.052490	-0.005554	0.066162	0	0.0062809	0.0013351	0.9868546	0	0.00978327	-0.00050378	1.00116134	0	116	507	-898412898	-898412898	147
6.720302	-0.046997	0.002441	0.069946	0	0.0060940	0.0014687	0.9874210	0	0.00809669	-0.00089908	1.00129437	0	132	507	-969713195	-969713195	147
6.720314	-0.048157	0.006165	0.069458	0	0.0062923	0.0017700	0.9876976	0	0.00775433	-0.00151157	1.00071907	0	148	506	30412711	30412711	147
6.744226	-0.050964	0.009827	0.057129	0	0.0067749	0.0020924	0.9874096	0	0.00844288	-0.00211072	1.00009322	0	164	506	-907648766	-907648766	147
6.744320	-0.049866	0.011841	0.039673	0	0.0080986	0.0026550	0.9870358	0	0.00958610	-0.00248814	1.00015211	0	180	506	-1747777948	-1747777948	147
6.744339	-0.046936	0.009094	0.020386	0	0.0099277	0.0032978	0.9868641	0	0.01094031	-0.00216126	1.00063610	0	196	506	-1716139427	-1716139427	147
6.768233	-0.046082	0.007507	0.003601	0	0.0113945	0.0037670	0.9868622	0	0.01230407	-0.00109863	1.00117779	0	212	506	2030333790	2030333790	147
6.768305	-0.046753	0.008545	-0.003235	0	0.0124321	0.0040627	0.9869900	0	0.01354623	0.00014567	1.00178409	0	228	506	-1174411360	-1174411360	147
6.768323	-0.043091	0.011780	0.003723	0	0.0129108	0.0041752	0.9868889	0	0.01454186	0.00103998	1.00212741	0	244	506	408471779	408471779	147
6.817160	-0.037720	0.013916	0.025635	0	0.0118713	0.0037766	0.9867229	0	0.01481676	0.00119233	1.00164366	0	4	507	1355828632	1355828632	147
6.817185	-0.041870	0.006531	0.048889	0	0.0096817	0.0030403	0.9871750	0	0.01407695	0.00062275	1.00075245	0	20	507	1847322023	1847322023	147
6.817240	-0.054871	-0.006836	0.054321	0	0.0080147	0.0026836	0.9881897	0	0.01279640	-0.00013733	1.00056171	0	36	507	692267380	692267380	147
6.817253	-0.060974	-0.014465	0.048157	0	0.0069866	0.0026112	0.9891987	0	0.01153779	-0.00066161	1.00098515	0	52	506	-988731776	-988731776	147
6.817303	-0.054077	-0.015747	0.047241	0	0.0061302	0.0024567	0.9897251	0	0.01044202	-0.00101089	1.00107002	0	68	506	-417323718	-417323718	147
6.817315	-0.044495	-0.010925	0.052063	0	0.0060825	0.0024452	0.9894028	0	0.00968933	-0.00126433	1.00096726	0	84	506	-1163179701	-1163179701	147
6.881108	-0.043335	0.008423	0.056946	0	0.0068893	0.0027237	0.9883766	0	0.00947738	-0.00127268	1.00130057	0	100	506	236942042	236942042	147
